time,accel_x,accel_y,accel_z,gyro_x,gyro_y,gyro_z
150022,0.14,-0.02,1.00,2.38,-2.44,-12.21
150037,0.14,-0.01,1.00,2.93,-2.62,-15.08
150053,0.13,-0.01,1.01,0.73,-2.69,-19.23
150069,0.13,-0.02,1.00,-1.65,-2.81,-22.34
150085,0.11,-0.02,1.00,1.77,-2.14,-25.27
150101,0.11,0.02,1.00,5.49,-2.08,-30.64
150117,0.09,0.07,1.00,5.37,-1.71,-32.78
150133,0.08,0.08,1.00,4.76,-1.95,-32.71
150149,0.08,0.11,1.00,0.98,-2.32,-32.35
150165,0.09,0.16,1.00,0.67,-3.05,-31.49
150181,0.10,0.19,1.00,1.65,-3.05,-29.60
150197,0.12,0.20,1.00,1.71,-3.11,-22.83
150213,0.11,0.18,1.00,3.05,-2.50,-14.16
150229,0.10,0.18,1.00,1.40,-2.93,-8.97
150245,0.04,0.14,0.99,2.93,-3.17,-0.43
150261,0.02,0.10,1.00,-0.92,-2.87,3.05
150277,-0.00,0.07,1.00,-0.31,-3.05,2.20
150293,-0.01,0.06,1.01,0.92,-2.69,-5.62
150309,-0.00,0.07,0.99,1.40,-2.32,-13.79
150325,-0.02,0.09,1.00,0.67,-2.14,-15.63
150341,-0.04,0.10,1.00,1.65,-2.14,-17.94
150357,-0.07,0.10,1.00,1.28,-2.38,-19.04
150373,-0.06,0.13,1.00,0.92,-1.53,-20.14
150389,-0.05,0.16,1.00,0.61,-1.83,-20.94
150405,-0.05,0.16,1.00,1.65,-2.08,-17.70
150421,-0.08,0.14,1.00,0.98,-2.14,-15.44
150437,-0.11,0.11,1.00,-0.31,-1.71,-14.65
150453,-0.12,0.10,1.00,0.98,-2.08,-14.47
150469,-0.11,0.10,1.00,1.46,-2.20,-14.10
150485,-0.11,0.12,1.00,1.16,-2.26,-14.83
150501,-0.12,0.11,1.00,2.32,-1.95,-14.83
150517,-0.10,0.16,1.00,1.53,-2.38,-13.67
150533,-0.10,0.18,1.00,2.44,-2.01,-8.00
150549,-0.09,0.19,1.00,1.28,-2.01,-2.26
150565,-0.12,0.13,1.00,0.85,-1.71,12.27
150581,-0.15,0.05,1.00,0.06,-1.34,23.07
150597,-0.16,0.02,1.00,0.79,-1.10,23.56
150613,-0.11,-0.03,1.01,1.89,-1.77,20.26
150629,-0.09,-0.02,1.00,0.37,-1.95,16.60
150645,-0.10,-0.01,1.00,-1.46,-2.14,16.48
150661,-0.13,0.00,1.00,-1.65,-2.08,18.55
150677,-0.14,-0.03,1.00,0.12,-1.95,19.84
150693,-0.15,-0.03,1.00,0.49,-1.83,20.08
150709,-0.14,-0.04,1.01,3.36,-1.77,19.04
150725,-0.10,-0.03,1.00,2.08,-1.95,18.68
150741,-0.11,-0.03,1.00,1.16,-1.83,19.78
150757,-0.12,-0.03,1.00,2.69,-1.71,22.28
150773,-0.11,-0.04,1.00,3.85,-1.46,23.07
150789,-0.10,-0.05,1.00,2.32,-0.98,23.68
150805,-0.09,-0.06,0.99,0.55,-1.28,26.18
150821,-0.09,-0.10,1.01,2.14,-1.53,27.65
150837,-0.08,-0.12,1.00,-0.31,-1.77,27.10
150853,-0.06,-0.13,1.01,2.50,-1.04,23.25
150869,-0.02,-0.12,1.01,3.17,-0.73,19.41
150885,-0.03,-0.11,1.01,2.69,-1.65,18.74
150901,-0.02,-0.13,1.01,0.43,-1.34,18.98
150917,-0.01,-0.10,1.01,2.08,-0.85,17.64
150933,-0.01,-0.09,1.00,1.95,-0.37,18.13
150949,0.00,-0.07,1.01,3.42,-0.67,19.84
150965,-0.00,-0.10,1.00,0.73,-1.10,24.11
150981,-0.01,-0.11,1.00,0.73,-1.28,25.27
150997,-0.02,-0.14,1.00,2.32,-0.98,24.41
151013,-0.01,-0.16,1.00,4.70,-1.16,22.40
151029,0.00,-0.18,1.01,3.17,-1.10,20.87
151045,0.05,-0.18,1.00,3.72,-1.16,15.44
151061,0.06,-0.14,1.01,1.10,-1.10,10.31
151077,0.05,-0.13,1.01,0.31,-1.71,8.24
151093,0.04,-0.10,1.00,0.55,-2.32,4.27
151109,0.06,-0.07,1.01,3.30,-2.14,2.81
151125,0.09,-0.09,1.00,3.36,-2.44,3.97
151141,0.13,-0.12,1.01,2.87,-2.01,7.87
151157,0.11,-0.15,1.00,1.65,-1.77,8.73
151173,0.10,-0.14,1.00,0.49,-1.83,7.26
151189,0.08,-0.14,1.00,0.24,-1.59,2.75
151205,0.08,-0.13,1.01,0.12,-1.71,-3.05
151221,0.08,-0.10,1.00,0.79,-1.89,-6.35
151237,0.10,-0.07,1.00,2.87,-2.50,-9.95
151253,0.10,-0.05,1.01,2.56,-1.95,-9.16
151269,0.10,-0.05,1.00,1.28,-1.65,-7.57
151285,0.11,-0.02,1.01,4.39,-1.46,-4.33
151301,0.13,-0.03,1.00,2.75,-1.53,-2.81
151317,0.13,-0.02,1.00,3.48,-1.71,-2.08
151333,0.14,-0.03,1.00,4.27,-1.65,-4.21
151349,0.13,-0.02,1.00,4.03,-1.83,-8.36
151365,0.13,-0.01,1.00,4.03,-2.26,-10.62
151381,0.14,0.05,0.97,1.95,-2.87,-15.81
151397,0.15,0.04,1.03,4.64,-2.50,-16.91
151413,0.12,0.08,1.00,0.37,-2.56,-18.62
151429,0.14,0.06,1.00,1.16,-2.69,-16.60
151445,0.15,0.05,1.00,2.75,-2.44,-16.11
151461,0.13,0.03,1.00,3.23,-2.93,-17.21
151477,0.11,0.05,1.00,3.30,-2.14,-20.20
151493,0.09,0.06,1.00,1.71,-1.95,-20.32
151509,0.07,0.09,1.00,0.00,-1.89,-19.17
151525,0.08,0.09,1.00,-2.99,-1.95,-16.72
151541,0.10,0.08,1.00,-3.66,-2.87,-15.93
151557,0.11,0.08,1.00,-0.55,-2.81,-17.64
151573,0.08,0.11,1.00,2.26,-3.30,-20.14
151589,0.05,0.11,1.00,4.27,-2.99,-20.57
151605,0.03,0.11,1.00,0.06,-3.42,-18.25
151621,0.03,0.14,1.00,-0.12,-3.17,-15.26
151637,0.04,0.16,0.99,-1.10,-2.87,-13.79
151653,0.03,0.20,1.00,-0.98,-2.56,-10.44
151669,0.00,0.20,1.00,0.55,-2.87,-8.48
151685,0.01,0.20,1.00,3.66,-2.20,-6.84
151701,-0.01,0.15,1.00,2.50,-1.83,-3.91
151717,-0.10,0.11,1.00,1.04,-1.71,-0.49
151733,-0.06,0.10,1.00,0.61,-2.08,-0.73
151749,-0.06,0.11,1.00,1.46,-2.26,-1.83
151765,-0.06,0.12,1.00,0.18,-1.46,-2.81
151781,-0.07,0.11,1.01,-0.12,-1.53,-2.62
151797,-0.08,0.09,1.01,0.98,-1.53,-2.14
151813,-0.06,0.07,1.00,0.61,-1.77,-2.44
151829,-0.07,0.07,1.00,0.85,-2.01,-3.05
151845,-0.08,0.08,1.00,2.14,-2.08,-5.13
151861,-0.08,0.08,1.00,2.14,-2.50,-5.80
151877,-0.08,0.06,1.00,2.14,-2.01,-5.31
151893,-0.09,0.09,1.00,0.00,-1.89,-2.32
151909,-0.12,0.09,1.00,-0.12,-1.28,2.38
151925,-0.10,0.10,1.00,-0.12,-1.16,4.09
151941,-0.10,0.08,1.00,0.61,-1.16,7.32
151957,-0.10,0.06,1.01,2.81,-1.65,10.19
151973,-0.10,0.04,1.00,1.71,-1.95,11.41
151989,-0.13,0.03,1.01,0.18,-2.50,13.00
152005,-0.14,0.05,1.01,-1.22,-2.14,13.73
152021,-0.14,0.06,1.00,-2.01,-2.20,14.95
152037,-0.13,0.05,1.00,-1.34,-1.83,20.08
152053,-0.12,0.01,1.00,-0.12,-1.83,26.61
152069,-0.12,-0.01,1.00,0.43,-2.01,28.44
152085,-0.13,-0.02,1.00,4.58,-2.20,28.50
152101,-0.13,-0.05,1.00,4.58,-2.08,27.22
152117,-0.12,-0.04,1.01,4.76,-1.95,26.25
152133,-0.12,-0.01,1.00,2.81,-1.59,24.72
152149,-0.11,-0.01,1.00,1.22,-0.92,27.40
152165,-0.11,-0.01,1.00,0.85,-0.73,30.40
152181,-0.14,-0.04,1.01,0.43,-0.98,33.75
152197,-0.13,-0.07,1.00,-1.28,-1.89,33.94
152213,-0.12,-0.08,1.00,-1.34,-1.10,34.30
152229,-0.09,-0.10,1.01,2.75,-0.98,33.57
152245,-0.06,-0.12,1.01,1.46,-1.10,33.08
152261,-0.07,-0.14,1.00,1.04,-1.22,33.26
152277,-0.04,-0.17,1.01,2.08,-1.10,32.65
152293,-0.05,-0.18,1.01,2.50,-0.92,28.26
152309,-0.03,-0.19,1.01,2.81,-1.16,25.27
152325,-0.01,-0.20,1.00,0.98,-1.53,20.87
152341,-0.01,-0.18,1.01,2.56,-1.71,17.64
152357,-0.02,-0.18,1.00,2.38,-1.40,15.93
152373,0.04,-0.17,1.01,4.39,-0.61,11.29
152389,0.03,-0.16,1.00,2.44,-1.65,9.58
152405,0.04,-0.15,1.00,3.23,-1.59,8.85
152421,0.03,-0.15,1.00,0.92,-0.92,6.90
152437,0.04,-0.15,1.01,-0.92,-1.89,6.84
152453,0.04,-0.14,1.01,0.00,-1.95,7.02
152469,0.04,-0.14,1.00,0.55,-2.20,6.65
152485,0.07,-0.14,1.00,-0.12,-2.44,4.94
152501,0.11,-0.15,1.00,1.34,-1.65,3.66
152517,0.14,-0.12,1.00,2.50,-1.59,0.55
152533,0.13,-0.11,1.00,4.70,-1.46,0.24
152549,0.13,-0.09,1.01,3.48,-1.71,0.92
152565,0.12,-0.09,1.00,0.55,-1.77,2.32
152581,0.13,-0.10,1.00,0.98,-1.89,2.20
152597,0.13,-0.09,1.00,1.77,-2.01,1.22
152613,0.14,-0.07,1.00,2.08,-2.01,-0.79
152629,0.15,-0.05,1.00,2.44,-2.14,-1.28
152645,0.16,-0.04,1.00,2.44,-1.65,-0.55
152661,0.15,-0.07,1.00,4.39,-1.65,0.00
152677,0.16,-0.07,1.00,4.03,-1.71,-0.85
152693,0.13,-0.09,1.01,4.21,-1.95,-1.59
152709,0.11,-0.10,1.00,5.07,-1.46,-6.16
152725,0.12,-0.08,1.01,5.49,-1.53,-10.01
152741,0.14,-0.01,1.00,3.78,-2.62,-16.78
152757,0.13,0.05,1.00,2.14,-2.87,-19.23
152773,0.14,0.07,1.00,2.62,-2.69,-19.23
152789,0.13,0.03,1.00,3.23,-1.59,-18.13
152805,0.10,0.01,1.00,5.00,-2.81,-20.81
152821,0.09,0.02,1.01,2.44,-3.17,-23.74
152837,0.07,0.06,1.00,2.08,-2.50,-29.91
152853,0.08,0.16,1.00,0.43,-2.32,-32.17
152869,0.09,0.18,1.00,0.00,-1.89,-29.66
152885,0.10,0.16,0.99,-0.18,-2.75,-23.50
152901,0.09,0.14,1.00,1.71,-2.99,-23.56
152917,0.10,0.15,1.00,2.38,-2.62,-25.02
152933,0.06,0.15,1.00,0.31,-3.30,-24.41
152949,-0.00,0.19,1.00,0.00,-4.15,-21.24
152965,-0.03,0.18,1.00,-0.98,-3.30,-19.29
152981,-0.07,0.15,1.00,0.00,-2.14,-15.63
152997,-0.07,0.18,0.99,1.04,-2.56,-14.16
153013,-0.08,0.18,1.00,2.08,-2.56,-15.26
153029,-0.08,0.19,1.00,0.61,-1.95,-13.98
153045,-0.08,0.18,1.00,-0.31,-1.65,-12.08
153061,-0.08,0.17,0.99,0.12,-2.01,-11.72
153077,-0.11,0.16,1.00,1.16,-1.95,-11.66
153093,-0.10,0.15,1.00,0.37,-1.34,-10.62
153109,-0.08,0.15,1.00,1.04,-1.59,-10.01
153125,-0.05,0.14,1.00,0.12,-1.59,-6.16
153141,-0.02,0.13,1.00,0.18,-1.77,-0.12
153157,-0.04,0.12,1.00,2.20,-1.89,3.36
153173,-0.04,0.07,1.00,3.60,-1.83,11.35
153189,-0.05,0.00,1.01,4.09,-1.89,15.20
153205,-0.05,-0.03,1.00,3.23,-1.95,14.71
153221,-0.04,-0.03,1.00,1.10,-2.14,9.46
153237,-0.06,-0.01,1.01,0.55,-1.77,5.80
153253,-0.06,-0.01,1.00,0.24,-1.46,5.92
153269,-0.09,-0.02,1.00,0.67,-1.77,7.26
153285,-0.09,-0.04,1.01,0.49,-1.59,6.96
153301,-0.10,-0.05,1.01,1.04,-1.83,6.71
153317,-0.10,-0.04,1.00,2.32,-1.65,5.68
153333,-0.09,-0.01,1.00,0.67,-1.95,5.25
153349,-0.09,0.01,1.00,1.46,-1.95,5.43
153365,-0.09,0.04,1.00,2.44,-2.08,8.54
153381,-0.08,0.02,1.00,2.62,-2.08,13.79
153397,-0.08,0.00,1.00,2.56,-2.20,16.17
153413,-0.08,-0.01,1.00,2.99,-2.01,17.40
153429,-0.08,0.01,1.01,2.50,-2.08,16.66
153445,-0.08,0.03,1.01,2.32,-1.71,16.30
153461,-0.07,0.06,1.00,1.89,-1.71,18.43
153477,-0.08,0.03,1.00,0.55,-1.65,22.83
153493,-0.09,0.02,1.00,0.67,-1.83,24.35
153509,-0.09,0.02,1.00,0.49,-1.71,25.33
153525,-0.09,0.03,1.00,1.40,-1.59,27.04
153541,-0.09,0.05,0.99,1.77,-1.46,28.99
153557,-0.09,-0.02,1.01,2.50,-1.28,32.35
153573,-0.08,-0.05,1.00,1.53,-0.24,33.75
153589,-0.08,-0.12,1.01,0.79,-0.55,32.96
153605,-0.07,-0.13,1.00,-0.31,-1.16,29.17
153621,-0.07,-0.13,1.01,-0.37,-0.85,24.35
153637,-0.06,-0.14,1.00,0.37,-1.10,22.71
153653,-0.06,-0.14,1.00,0.55,-1.28,20.32
153669,-0.04,-0.15,1.00,1.53,-1.22,18.68
153685,-0.01,-0.16,1.00,3.36,-1.16,17.94
153701,0.00,-0.18,1.00,4.39,-1.53,14.04
153717,0.03,-0.18,1.01,4.88,-0.98,11.47
153733,0.05,-0.19,1.01,3.48,-1.40,7.57
153749,0.04,-0.17,1.00,0.61,-1.53,3.36
153765,0.05,-0.16,1.00,0.92,-1.83,1.95
153781,0.02,-0.15,1.01,1.77,-1.89,0.31
153797,0.03,-0.16,1.01,2.69,-1.46,-1.40
153813,0.06,-0.16,1.01,2.75,-2.08,-2.87
153829,0.10,-0.14,1.01,2.20,-2.62,-4.82
153845,0.09,-0.10,1.01,-0.24,-2.26,-6.10
153861,0.10,-0.09,1.00,-1.10,-2.01,-6.84
153877,0.07,-0.06,1.00,0.85,-1.59,-7.08
153893,0.10,-0.06,1.00,1.65,-1.71,-4.46
153909,0.12,-0.06,1.00,2.99,-1.77,-2.69
153925,0.15,-0.05,1.00,3.66,-1.77,-0.55
153941,0.15,-0.04,1.00,2.32,-1.59,-0.31
153957,0.16,-0.02,1.01,2.38,-1.77,-0.73
153973,0.14,-0.00,1.01,2.14,-1.95,-0.92
153989,0.14,0.00,1.00,3.42,-1.46,-1.28
154005,0.15,-0.01,1.00,4.58,-1.16,-0.37
154021,0.16,-0.02,1.00,2.32,-1.65,0.37
154037,0.17,-0.02,1.00,1.65,-2.26,-3.23
154053,0.16,-0.01,1.00,0.18,-2.44,-5.98
154069,0.16,0.00,1.00,0.37,-2.56,-10.68
154085,0.14,0.02,1.00,-1.10,-2.32,-15.99
154101,0.13,0.03,1.00,1.46,-1.95,-16.72
154117,0.09,0.03,1.00,4.52,-2.26,-15.99
154133,0.08,-0.01,1.00,3.97,-2.26,-14.89
154149,0.06,-0.02,1.00,3.72,-2.20,-15.20
154165,0.05,0.03,1.00,1.46,-2.32,-20.20
154181,0.06,0.08,1.00,-1.71,-2.32,-23.74
154197,0.06,0.09,1.00,-1.83,-2.81,-24.60
154213,0.07,0.10,1.00,-0.67,-2.81,-23.56
154229,0.08,0.11,1.00,1.46,-2.87,-21.79
154245,0.07,0.11,1.00,1.59,-2.87,-21.42
154261,0.05,0.13,1.00,0.49,-3.48,-22.22
154277,0.03,0.19,1.00,1.28,-3.85,-22.83
154293,-0.02,0.21,1.01,0.55,-3.11,-21.18
154309,0.01,0.19,1.00,1.53,-2.56,-13.85
154325,0.03,0.15,1.01,0.98,-2.62,-5.43
154341,0.05,0.14,1.00,0.61,-2.50,-2.50
154357,-0.01,0.11,1.00,-0.06,-1.59,-0.12
154373,-0.04,0.10,1.00,0.73,-1.95,-3.54
154389,-0.06,0.10,1.01,2.50,-2.01,-5.86
154405,-0.03,0.11,0.99,1.34,-2.20,-11.11
154421,-0.02,0.13,1.01,0.67,-1.71,-12.63
154437,-0.03,0.13,1.00,-0.37,-1.89,-11.05
154453,-0.07,0.14,1.00,1.04,-1.83,-7.75
154469,-0.10,0.13,1.00,0.67,-2.20,-6.10
154485,-0.09,0.13,1.00,0.67,-2.08,-5.31
154501,-0.10,0.12,1.00,2.69,-2.62,-6.10
154517,-0.07,0.10,1.00,3.66,-2.50,-6.84
154533,-0.07,0.11,1.00,3.11,-2.32,-4.82
154549,-0.07,0.12,1.00,1.95,-1.89,1.10
154565,-0.08,0.12,1.00,2.56,-1.46,7.51
154581,-0.10,0.08,1.00,2.08,-0.98,9.09
154597,-0.10,0.05,1.00,2.50,-0.85,9.95
154613,-0.09,0.04,1.00,2.01,-1.59,9.64
154629,-0.09,0.04,1.00,1.89,-1.95,9.28
154645,-0.09,0.05,1.00,1.77,-2.20,11.05
154661,-0.09,0.04,1.00,1.16,-2.38,16.11
154677,-0.09,0.01,1.00,0.55,-2.26,18.92
154693,-0.13,-0.01,1.00,0.49,-1.53,22.09
154709,-0.16,-0.02,1.01,0.85,-2.01,20.02
154725,-0.16,-0.01,1.00,1.59,-1.95,18.19
154741,-0.14,0.00,1.00,1.59,-2.50,16.42
154757,-0.15,0.02,1.00,1.71,-2.20,17.15
154773,-0.16,0.04,1.00,2.69,-1.40,20.75
154789,-0.17,0.02,1.00,1.83,-1.28,26.31
154805,-0.16,0.01,1.00,2.81,-1.16,29.30
154821,-0.15,-0.01,1.01,2.81,-0.61,33.75
154837,-0.15,-0.07,1.01,-0.06,-1.22,36.19
154853,-0.14,-0.08,1.00,-2.26,-1.65,36.01
154869,-0.14,-0.07,1.00,-2.69,-0.98,34.24
154885,-0.13,-0.04,1.00,1.40,-0.31,33.45
154901,-0.11,-0.05,1.01,2.32,-0.49,34.42
154917,-0.10,-0.08,1.01,2.50,-1.28,39.73
154933,-0.11,-0.19,1.01,3.36,-0.49,45.17
154949,-0.12,-0.25,1.01,3.42,-0.49,44.62
154965,-0.08,-0.30,1.01,3.17,-1.46,36.62
154981,-0.02,-0.32,1.02,-0.85,-0.12,25.15
154997,-0.01,-0.30,1.00,0.31,-2.08,18.19
155013,0.04,-0.24,1.02,1.59,-1.04,8.00
155029,0.04,-0.19,1.00,3.23,-1.22,4.03
155045,0.06,-0.17,1.00,2.26,-1.59,3.17
155061,0.09,-0.18,1.01,-1.46,-1.77,7.14
155077,0.13,-0.20,1.00,3.85,-2.69,7.32
155093,0.13,-0.20,1.00,2.38,-2.56,6.53
155109,0.16,-0.22,1.00,3.23,-1.89,4.33
155125,0.13,-0.18,1.00,3.72,-1.46,0.61
155141,0.11,-0.16,1.01,5.49,-0.98,-0.24
155157,0.13,-0.12,1.01,3.97,-1.16,-0.55
155173,0.15,-0.13,1.01,-1.28,-2.14,-1.22
155189,0.18,-0.11,1.02,-2.56,-2.08,-0.98
155205,0.14,-0.09,1.00,5.55,-1.71,1.53
155221,0.13,-0.08,1.00,0.12,-1.59,-0.37
155237,0.15,-0.06,1.01,0.12,-1.89,-0.37
155253,0.16,-0.06,1.00,-1.10,-1.53,-1.83
155269,0.17,-0.04,1.01,2.56,-1.59,-5.31
155285,0.17,-0.02,1.01,1.83,-1.89,-7.14
155301,0.17,-0.01,1.00,4.21,-1.89,-9.40
155317,0.14,0.01,1.00,3.78,-1.71,-12.82
155333,0.15,0.02,1.00,3.78,-1.83,-14.53
155349,0.14,0.05,1.00,4.46,-2.62,-16.85
155365,0.15,0.08,1.01,1.95,-2.99,-18.37
155381,0.14,0.07,1.01,0.31,-2.81,-18.68
155397,0.13,0.04,0.99,1.59,-2.32,-17.58
155413,0.09,0.06,1.01,2.75,-2.62,-20.39
155429,0.12,0.05,1.00,2.20,-2.69,-22.28
155445,0.07,0.07,1.00,3.36,-1.95,-25.57
155461,0.09,0.11,1.00,1.46,-2.69,-27.04
155477,0.11,0.11,1.00,-0.31,-2.50,-26.92
155493,0.11,0.11,1.00,-0.18,-2.81,-26.06
155509,0.12,0.10,1.00,1.46,-2.87,-28.56
155525,0.09,0.12,1.00,3.54,-3.42,-31.56
155541,0.05,0.15,1.00,2.81,-3.60,-34.61
155557,0.01,0.17,1.00,0.18,-3.48,-31.92
155573,-0.01,0.17,1.01,-1.40,-4.15,-30.88
155589,-0.03,0.17,0.99,-0.06,-3.48,-29.24
155605,0.01,0.21,0.99,1.46,-3.23,-26.67
155621,-0.00,0.20,0.99,1.34,-2.99,-24.66
155637,-0.03,0.19,1.00,0.24,-1.89,-16.42
155653,-0.01,0.16,1.00,1.16,-1.59,-7.69
155669,-0.03,0.11,1.00,0.43,-2.01,-2.87
155685,-0.05,0.06,1.00,-1.40,-1.40,2.01
155701,-0.08,0.05,1.00,-0.73,-1.89,-0.31
155717,-0.13,0.04,1.00,-0.55,-2.08,-4.09
155733,-0.14,0.06,1.00,0.61,-1.95,-12.02
155749,-0.13,0.08,1.00,0.67,-2.08,-17.58
155765,-0.10,0.12,1.00,1.04,-2.32,-17.46
155781,-0.08,0.12,1.00,1.16,-2.32,-13.85
155797,-0.06,0.11,1.00,1.59,-2.14,-11.23
155813,-0.05,0.10,1.00,2.75,-1.71,-6.53
155829,-0.07,0.08,1.00,2.44,-1.71,-2.62
155845,-0.08,0.08,1.00,2.26,-1.53,-0.79
155861,-0.10,0.05,1.00,0.85,-1.40,4.82
155877,-0.12,0.03,1.00,0.79,-1.53,9.22
155893,-0.11,0.04,1.00,1.10,-1.65,9.58
155909,-0.11,0.05,1.00,2.14,-2.08,9.22
155925,-0.09,0.07,1.00,2.93,-2.26,10.25
155941,-0.08,0.08,1.00,2.81,-2.08,12.88
155957,-0.09,0.07,1.00,1.34,-2.20,21.06
155973,-0.08,0.04,1.00,2.38,-1.65,26.61
155989,-0.09,0.01,1.01,2.69,-1.53,29.48
156005,-0.10,-0.03,1.01,2.26,-1.65,32.29
156021,-0.13,-0.03,1.01,2.38,-2.14,30.94
156037,-0.15,-0.03,1.00,1.34,-1.89,29.97
156053,-0.16,0.01,1.00,2.56,-1.53,27.95
156069,-0.16,0.03,1.00,2.81,-1.34,30.03
156085,-0.16,0.03,1.00,2.01,-1.04,32.04
156101,-0.13,0.02,1.00,2.87,-1.04,36.01
156117,-0.10,-0.03,1.01,2.32,-0.92,40.71
156133,-0.10,-0.06,1.01,-0.12,-1.16,42.91
156149,-0.11,-0.10,1.00,-3.05,-1.28,45.47
156165,-0.10,-0.11,1.00,-0.55,-0.98,45.04
156181,-0.09,-0.15,1.01,0.67,-0.92,44.25
156197,-0.08,-0.19,1.00,1.16,-0.37,41.32
156213,-0.05,-0.21,1.01,2.56,-1.34,35.95
156229,-0.04,-0.22,1.01,0.92,-1.59,32.59
156245,-0.04,-0.25,1.01,2.56,-0.85,26.37
156261,-0.01,-0.23,1.00,4.52,-0.92,18.92
156277,-0.01,-0.21,1.01,3.48,-1.71,15.87
156293,-0.02,-0.19,1.00,1.04,-1.83,13.37
156309,-0.01,-0.19,1.00,3.42,-1.71,10.93
156325,-0.00,-0.19,1.01,4.70,-1.04,9.95
156341,0.01,-0.19,1.01,2.87,-1.28,7.57
156357,0.02,-0.16,1.01,2.01,-0.79,3.60
156373,0.03,-0.16,1.01,0.67,-1.40,1.71
156389,0.07,-0.13,1.01,0.61,-1.22,0.37
156405,0.08,-0.13,1.00,0.85,-2.01,0.24
156421,0.08,-0.13,1.00,1.34,-2.38,0.24
156437,0.09,-0.15,1.01,1.46,-2.50,-1.53
156453,0.11,-0.15,1.00,-0.79,-2.38,-3.42
156469,0.10,-0.15,1.00,-1.16,-2.01,-5.43
156485,0.07,-0.10,1.01,2.56,-1.77,-12.15
156501,0.11,-0.04,1.00,3.23,-2.38,-15.26
156517,0.11,-0.02,1.00,2.62,-1.83,-14.95
156533,0.13,0.01,1.01,4.09,-1.34,-12.33
156549,0.13,0.00,1.00,3.23,-1.83,-13.06
156565,0.14,-0.00,1.00,4.03,-1.83,-13.67
156581,0.14,0.01,1.00,5.13,-2.20,-15.56
156597,0.14,0.01,1.00,2.62,-2.32,-15.20
156613,0.16,0.05,1.01,-1.34,-2.32,-15.75
156629,0.15,0.02,1.00,1.28,-1.95,-17.21
156645,0.16,0.03,1.00,1.59,-2.08,-18.43
156661,0.16,0.04,1.00,2.20,-2.44,-19.65
156677,0.17,0.03,1.00,3.42,-2.56,-23.93
156693,0.17,0.03,1.03,3.23,-2.38,-25.45
156709,0.13,0.04,1.00,4.76,-1.59,-26.86
156725,0.09,0.05,1.01,2.93,-2.20,-29.60
156741,0.08,0.06,1.01,-1.40,-2.26,-28.02
156757,0.07,0.05,1.00,-1.46,-2.38,-26.25
156773,0.07,0.06,1.00,-1.65,-3.30,-25.76
156789,0.08,0.07,1.00,0.98,-2.38,-27.22
156805,0.09,0.10,1.00,-0.12,-2.38,-28.26
156821,0.09,0.13,1.00,1.83,-2.75,-28.50
156837,0.07,0.15,1.00,1.53,-2.69,-28.38
156853,0.07,0.17,1.00,3.66,-2.69,-27.83
156869,0.05,0.17,1.00,1.28,-2.93,-22.95
156885,0.04,0.18,1.00,1.83,-2.32,-20.14
156901,0.02,0.16,1.01,1.77,-1.53,-18.43
156917,0.05,0.17,1.00,1.10,-2.56,-19.17
156933,0.04,0.18,1.00,2.20,-2.69,-18.25
156949,-0.01,0.20,1.00,1.10,-2.44,-14.59
156965,0.01,0.19,1.00,0.00,-2.20,-8.12
156981,0.01,0.19,1.00,-0.06,-2.44,-2.81
156997,-0.03,0.18,1.00,-0.06,-1.77,5.31
157013,-0.06,0.11,1.00,1.34,-1.89,5.62
157029,-0.07,0.08,1.00,2.20,-2.20,3.91
157045,-0.08,0.05,1.01,2.93,-1.59,-0.73
157061,-0.08,0.07,1.00,1.53,-1.95,-6.29
157077,-0.08,0.07,1.01,0.67,-1.77,-9.09
157093,-0.06,0.09,1.01,-1.71,-2.38,-11.47
157109,-0.07,0.09,1.00,-0.55,-1.71,-10.19
157125,-0.07,0.08,1.00,0.61,-2.01,-9.40
157141,-0.12,0.07,1.00,1.34,-2.81,-6.59
157157,-0.16,0.06,1.00,2.50,-2.14,-3.60
157173,-0.16,0.06,1.01,1.22,-2.08,-3.11
157189,-0.16,0.10,1.00,0.12,-1.77,-2.14
157205,-0.13,0.11,1.00,-0.49,-1.28,2.87
157221,-0.13,0.10,1.00,-0.31,-1.16,6.53
157237,-0.12,0.07,1.00,1.95,-1.34,13.49
157253,-0.13,0.03,1.01,3.97,-1.65,19.04
157269,-0.13,0.02,1.00,3.85,-1.77,21.79
157285,-0.14,0.02,1.00,2.44,-1.77,28.14
157301,-0.17,0.01,1.00,2.01,-1.77,34.55
157317,-0.15,0.02,1.00,2.26,-1.53,36.07
157333,-0.15,-0.02,1.01,1.77,-1.77,39.00
157349,-0.14,-0.07,1.00,3.72,-1.65,40.95
157365,-0.14,-0.10,1.00,4.09,-1.71,41.63
157381,-0.13,-0.13,1.01,3.78,-1.59,39.49
157397,-0.10,-0.13,1.01,0.61,-1.04,36.93
157413,-0.09,-0.12,1.01,-0.24,-1.34,36.13
157429,-0.07,-0.11,1.00,0.73,-1.46,36.25
157445,-0.06,-0.15,1.01,1.28,-1.65,36.62
157461,-0.06,-0.14,1.00,2.93,-1.10,35.89
157477,-0.05,-0.16,1.00,2.38,-0.37,34.85
157493,-0.04,-0.20,1.01,1.34,-0.55,32.23
157509,-0.01,-0.21,1.01,1.53,-0.85,30.64
157525,-0.02,-0.19,1.00,0.37,-0.73,25.33
157541,-0.03,-0.15,1.01,1.28,-1.40,21.55
157557,-0.04,-0.16,1.00,0.79,-1.53,20.81
157573,-0.02,-0.18,1.01,2.69,-1.46,19.41
157589,-0.01,-0.20,1.00,3.05,-1.22,17.15
157605,0.01,-0.19,1.01,3.17,-1.10,14.95
157621,0.05,-0.18,1.00,0.49,-1.59,10.01
157637,0.03,-0.16,1.01,0.37,-1.34,7.45
157653,0.02,-0.16,1.00,-0.43,-1.65,5.98
157669,0.04,-0.13,1.00,0.49,-1.71,1.65
157685,0.06,-0.10,1.00,1.34,-1.83,-3.23
157701,0.08,-0.09,1.01,2.01,-1.95,-4.70
157717,0.07,-0.09,1.00,1.34,-2.50,-4.33
157733,0.07,-0.08,1.01,0.67,-2.14,-2.50
157749,0.09,-0.07,1.01,1.40,-1.89,-3.60
157765,0.13,-0.07,1.01,2.69,-2.14,-5.49
157781,0.15,-0.05,1.00,2.75,-1.46,-5.74
157797,0.17,-0.06,1.00,3.91,-1.34,-4.94
157813,0.16,-0.06,1.00,2.32,-1.53,-5.49
157829,0.17,-0.06,1.00,4.09,-1.89,-7.81
157845,0.17,-0.05,1.01,3.42,-2.01,-8.73
157861,0.15,-0.05,1.01,2.38,-1.89,-9.83
157877,0.15,-0.04,1.00,2.01,-2.14,-12.27
157893,0.15,-0.05,1.01,1.34,-2.26,-16.85
157909,0.17,-0.02,1.00,-1.65,-2.44,-25.33
157925,0.17,-0.00,1.00,0.37,-2.14,-28.50
157941,0.20,0.03,1.00,4.88,-2.75,-31.49
157957,0.17,0.04,1.00,4.33,-2.01,-31.25
157973,0.16,0.04,1.00,4.33,-1.71,-30.64
157989,0.10,0.05,1.01,3.05,-1.59,-30.94
158005,0.07,0.08,1.01,-2.56,-2.20,-29.66
158021,0.06,0.08,1.00,-2.62,-2.32,-28.26
158037,0.08,0.12,0.99,-1.40,-2.99,-26.67
158053,0.09,0.14,1.00,0.37,-2.69,-24.84
158069,0.11,0.14,1.00,0.12,-2.87,-22.89
158085,0.11,0.15,1.00,3.97,-3.05,-19.96
158101,0.10,0.17,1.00,3.05,-3.36,-18.80
158117,0.08,0.17,0.99,1.83,-3.60,-17.52
158133,0.01,0.18,1.00,2.08,-2.44,-10.74
158149,-0.00,0.17,1.00,2.20,-1.65,-6.65
158165,0.00,0.16,1.00,2.50,-2.38,-5.31
158181,0.01,0.14,1.01,0.98,-2.32,-2.87
158197,-0.01,0.15,0.99,0.43,-2.14,-2.62
158213,-0.05,0.15,1.00,1.53,-1.83,-2.20
158229,-0.12,0.15,1.00,1.22,-1.89,-2.99
158245,-0.14,0.14,1.00,1.71,-2.20,-5.80
158261,-0.14,0.14,1.01,1.95,-1.95,-6.77
158277,-0.08,0.15,1.00,2.08,-1.77,-8.18
158293,-0.05,0.15,1.00,1.28,-1.83,-6.47
158309,-0.04,0.14,1.00,0.67,-2.01,-4.64
158325,-0.05,0.13,1.00,-0.43,-2.14,-1.28
158341,-0.04,0.10,1.00,-0.37,-1.95,0.24
158357,-0.04,0.08,1.00,0.79,-1.71,0.79
158373,-0.06,0.05,1.01,1.95,-2.44,3.11
158389,-0.08,0.03,1.00,1.95,-2.56,5.80
158405,-0.09,0.01,1.01,2.50,-2.14,6.47
158421,-0.07,0.02,1.00,1.71,-1.71,6.47
158437,-0.07,0.02,1.00,1.89,-1.40,6.10
158453,-0.06,0.02,1.00,1.77,-1.46,6.65
158469,-0.10,0.01,1.00,0.67,-1.22,7.69
158485,-0.12,0.01,1.00,0.73,-1.40,7.26
158501,-0.13,0.01,1.01,2.14,-1.46,6.16
158517,-0.12,0.03,1.00,1.34,-2.01,5.37
158533,-0.11,0.06,1.00,0.98,-2.38,7.39
158549,-0.10,0.08,1.00,0.43,-2.26,9.83
158565,-0.12,0.09,1.00,-0.18,-1.89,18.43
158581,-0.14,0.06,1.00,-1.22,-1.65,26.55
158597,-0.15,0.04,1.00,-1.16,-1.59,29.60
158613,-0.15,-0.00,1.01,-0.31,-1.83,33.14
158629,-0.12,-0.04,1.00,2.32,-2.08,33.39
158645,-0.13,-0.05,1.00,1.89,-1.83,33.45
158661,-0.13,-0.06,1.01,1.46,-1.46,31.13
158677,-0.11,-0.06,1.00,-0.37,-1.71,29.72
158693,-0.09,-0.08,1.00,-2.38,-1.46,30.46
158709,-0.07,-0.12,1.00,-1.46,-1.59,33.39
158725,-0.05,-0.16,1.00,2.38,-2.20,33.02
158741,-0.06,-0.18,1.00,3.60,-1.34,32.04
158757,-0.04,-0.22,1.00,3.85,-1.16,27.22
158773,-0.04,-0.19,1.01,5.25,-1.28,19.71
158789,-0.04,-0.17,1.00,4.46,-1.10,16.85
158805,-0.04,-0.12,1.00,4.33,-1.34,17.21
158821,-0.03,-0.14,1.00,3.23,-0.92,20.14
158837,-0.01,-0.18,1.01,2.14,-1.04,21.24
158853,-0.00,-0.20,1.01,1.04,-1.40,19.96
158869,-0.02,-0.20,1.01,2.08,-2.01,14.47
158885,-0.01,-0.19,1.01,3.91,-1.59,11.84
158901,-0.00,-0.17,1.01,3.54,-1.53,9.52
158917,0.01,-0.16,1.01,1.53,-1.53,7.02
158933,0.06,-0.15,1.01,1.22,-1.04,6.10
158949,0.06,-0.15,1.01,1.65,-1.40,6.23
158965,0.05,-0.15,1.00,1.04,-1.28,8.30
158981,0.04,-0.14,1.01,1.71,-1.71,8.24
158997,0.05,-0.15,1.00,1.71,-1.77,6.90
159013,0.08,-0.15,1.01,1.95,-1.65,5.80
159029,0.10,-0.13,1.00,2.32,-2.08,1.28
159045,0.09,-0.12,1.00,2.32,-1.46,-4.39
159061,0.13,-0.08,1.01,2.93,-1.40,-6.59
159077,0.14,-0.07,1.00,2.56,-1.71,-9.03
159093,0.16,-0.06,1.00,2.99,-2.14,-9.77
159109,0.16,-0.05,1.00,2.50,-2.50,-10.74
159125,0.18,-0.02,1.00,0.61,-2.50,-10.80
159141,0.19,0.01,1.00,-1.16,-1.89,-8.67
159157,0.18,0.03,1.01,0.31,-1.77,-8.54
159173,0.17,-0.01,1.00,-1.59,-1.95,-10.31
159189,0.17,-0.06,1.00,0.49,-2.44,-13.00
159205,0.17,-0.06,0.99,3.42,-2.56,-16.97
159221,0.15,0.00,1.00,10.19,-2.14,-27.34
159237,0.13,0.06,1.01,0.43,-2.32,-33.51
159253,0.13,0.07,1.00,-2.93,-2.69,-31.86
159269,0.09,0.10,1.00,-0.92,-3.30,-27.65
159285,0.07,0.11,1.01,1.40,-2.75,-27.22
159301,0.09,0.10,1.01,0.43,-2.87,-26.12
159317,0.06,0.11,1.00,1.04,-2.87,-26.86
159333,0.06,0.17,1.00,2.69,-2.50,-30.03
159349,0.06,0.22,1.00,3.66,-2.75,-30.09
159365,0.07,0.27,0.99,4.27,-2.26,-25.21
159381,0.06,0.24,1.00,3.36,-1.46,-18.25
159397,0.06,0.19,1.00,2.56,-2.20,-14.40
159413,0.00,0.14,1.00,2.81,-2.20,-9.09
159429,-0.04,0.16,1.00,-0.37,-2.26,-9.46
159445,-0.05,0.18,1.00,-0.49,-2.87,-10.07
159461,-0.07,0.22,1.00,1.22,-2.14,-9.83
159477,-0.03,0.23,1.00,2.20,-2.08,-6.41
159493,-0.01,0.20,1.00,1.89,-1.77,-2.93
159509,-0.04,0.11,1.00,2.08,-2.01,6.71
159525,-0.11,0.05,1.01,2.20,-1.77,8.36
159541,-0.14,0.05,1.00,2.56,-1.89,6.16
159557,-0.13,0.09,1.00,1.65,-1.59,-0.67
159573,-0.05,0.12,1.00,1.22,-1.89,-6.90
159589,-0.03,0.13,1.00,0.79,-1.89,-8.54
159605,-0.02,0.11,1.00,0.31,-2.38,-5.37
159621,0.00,0.08,1.00,-0.61,-2.20,0.73
159637,-0.01,0.06,1.00,0.12,-2.26,2.14
159653,-0.04,0.06,1.00,1.28,-2.26,4.94
159669,-0.01,0.06,1.00,1.53,-2.44,8.42
159685,-0.02,0.06,1.00,2.32,-2.01,10.80
159701,-0.04,0.05,1.00,2.44,-1.71,15.99
159717,-0.07,0.03,1.00,0.98,-1.34,19.47
159733,-0.09,0.03,1.00,1.71,-0.98,21.00
159749,-0.11,0.01,1.00,2.14,-0.67,21.91
159765,-0.11,-0.00,1.00,1.22,-1.04,22.22
159781,-0.11,-0.01,1.00,1.22,-1.46,21.18
159797,-0.10,-0.01,1.00,2.32,-1.77,18.13
159813,-0.09,0.00,1.00,2.08,-1.95,18.01
159829,-0.09,0.00,1.00,1.65,-1.83,18.80
159845,-0.10,0.00,1.01,1.83,-1.83,21.18
159861,-0.11,0.01,1.01,0.12,-1.89,25.51
159877,-0.14,0.01,1.00,0.67,-2.26,26.86
159893,-0.15,-0.01,1.00,2.20,-2.14,29.11
159909,-0.15,-0.00,1.00,3.91,-1.65,28.44
159925,-0.14,0.00,1.00,4.15,-1.59,28.20
159941,-0.15,0.01,1.00,2.38,-1.22,28.99
159957,-0.16,0.01,1.00,0.43,-0.73,31.43
159973,-0.15,0.01,1.00,0.55,-1.16,32.90
159989,-0.14,-0.01,0.99,0.00,-1.40,36.32
160005,-0.13,-0.06,1.00,15.44,-1.46,38.09