time,accel_x,accel_y,accel_z,gyro_x,gyro_y,gyro_z
90022,0.13,-0.10,1.01,0.37,-2.87,-15.32
90037,0.15,-0.07,1.00,1.04,-2.50,-13.61
90053,0.15,-0.03,1.01,4.70,-2.14,-15.01
90069,0.16,-0.01,1.01,0.55,-2.14,-18.25
90085,0.17,0.04,1.00,1.28,-2.20,-18.98
90101,0.18,0.10,1.01,3.48,-2.50,-21.85
90117,0.18,0.10,1.00,3.72,-2.38,-24.17
90133,0.16,0.12,1.02,1.83,-2.62,-24.05
90149,0.14,0.05,1.01,2.69,-2.38,-15.75
90165,0.12,0.04,1.01,2.56,-2.20,-14.16
90181,0.07,0.05,1.01,-0.85,-2.32,-14.71
90197,0.06,0.05,0.99,0.61,-2.20,-18.92
90213,0.05,0.05,0.99,3.66,-2.08,-23.13
90229,0.08,0.06,0.99,6.53,-1.89,-28.32
90245,0.11,0.11,1.01,8.00,-2.26,-28.38
90261,0.11,0.14,1.01,3.36,-2.56,-27.16
90277,0.13,0.17,1.01,1.34,-2.81,-18.13
90293,0.10,0.14,1.00,-2.38,-2.50,-10.50
90309,0.07,0.14,0.99,1.40,-2.87,-8.67
90325,0.05,0.20,1.00,3.78,-2.87,-11.41
90341,0.04,0.25,0.99,5.13,-2.38,-9.58
90357,0.07,0.25,0.99,3.05,-2.14,-6.84
90373,-0.01,0.28,1.00,-2.62,-3.23,1.22
90389,-0.04,0.27,1.00,-0.31,-2.44,6.23
90405,-0.02,0.27,0.99,1.04,-2.14,8.30
90421,-0.04,0.25,1.00,0.37,-1.28,14.89
90437,-0.09,0.18,1.00,0.00,-0.55,25.21
90453,-0.13,0.14,1.00,1.89,-0.79,31.19
90469,-0.17,0.05,1.00,0.55,-0.31,39.73
90485,-0.16,-0.00,1.01,1.16,-0.85,39.18
90501,-0.13,-0.01,1.00,2.01,-1.40,35.52
90517,-0.10,-0.01,1.01,3.42,-1.71,25.63
90533,-0.05,0.01,1.00,4.46,-1.83,16.72
90549,-0.04,0.02,1.00,3.85,-1.71,12.57
90565,-0.07,0.04,1.00,1.22,-2.38,6.84
90581,-0.11,0.05,1.00,0.24,-2.38,4.76
90597,-0.11,0.06,1.00,0.55,-1.95,4.82
90613,-0.12,0.05,1.00,-0.18,-1.77,4.52
90629,-0.13,0.03,1.00,-0.12,-1.77,5.00
90645,-0.13,0.01,1.00,0.24,-2.01,5.55
90661,-0.12,-0.01,1.00,1.16,-1.95,7.20
90677,-0.11,-0.01,1.00,2.08,-1.77,7.51
90693,-0.10,-0.01,1.00,2.50,-1.77,6.65
90709,-0.09,0.01,1.00,2.01,-1.95,5.00
90725,-0.08,0.01,1.00,1.16,-2.32,4.03
90741,-0.06,0.01,1.00,0.92,-2.32,4.70
90757,-0.06,0.02,1.01,0.98,-2.20,6.84
90773,-0.09,0.03,1.00,1.89,-1.71,7.69
90789,-0.09,0.05,1.00,2.38,-1.77,7.08
90805,-0.05,0.03,1.01,3.42,-1.65,8.73
90821,-0.04,0.03,1.00,0.79,-1.53,13.49
90837,-0.04,0.03,1.00,1.10,-1.65,15.26
90853,-0.05,0.00,1.00,-1.04,-1.95,16.48
90869,-0.10,0.01,1.00,-0.85,-2.08,14.47
90885,-0.09,0.01,1.00,1.04,-1.71,12.63
90901,-0.07,0.02,1.01,2.81,-1.53,12.57
90917,-0.03,0.00,1.00,2.87,-1.22,16.42
90933,-0.03,-0.04,1.00,1.46,-0.55,18.80
90949,-0.05,-0.12,1.01,-0.37,-1.10,20.45
90965,-0.04,-0.11,1.00,1.28,-1.65,16.91
90981,-0.05,-0.09,1.00,1.28,-1.71,15.01
90997,-0.06,-0.06,1.01,2.87,-1.10,11.23
91013,-0.05,-0.09,1.00,1.59,-2.01,10.01
91029,-0.08,-0.09,1.00,1.53,-2.38,10.38
91045,-0.07,-0.12,1.00,0.12,-1.65,11.23
91061,-0.05,-0.15,1.00,1.28,-1.65,11.17
91077,-0.02,-0.17,1.00,1.77,-1.34,10.13
91093,0.01,-0.21,1.01,0.55,-0.12,9.77
91109,0.00,-0.21,1.01,2.26,-1.04,8.24
91125,0.02,-0.22,1.01,0.49,-1.40,5.80
91141,0.04,-0.19,1.01,-0.61,-1.46,-0.06
91157,0.06,-0.18,1.01,1.95,-2.08,-3.60
91173,0.07,-0.17,1.01,4.03,-1.95,-3.23
91189,0.08,-0.17,1.01,3.05,-2.20,0.24
91205,0.08,-0.19,1.01,2.32,-2.14,4.52
91221,0.10,-0.19,1.01,-0.18,-2.01,3.17
91237,0.13,-0.16,1.00,-0.24,-1.89,-5.43
91253,0.14,-0.13,1.00,1.89,-1.89,-10.68
91269,0.14,-0.07,1.01,6.23,-1.40,-19.04
91285,0.13,-0.08,1.00,1.65,-1.46,-18.37
91301,0.11,-0.08,1.01,0.73,-1.65,-14.16
91317,0.12,-0.09,1.01,-0.85,-1.95,-5.43
91333,0.13,-0.07,1.00,0.61,-2.38,0.43
91349,0.15,-0.02,0.99,1.40,-2.14,0.43
91365,0.16,-0.03,1.01,5.37,-1.77,-3.60
91381,0.18,-0.01,1.00,1.16,-2.01,-8.54
91397,0.18,-0.00,1.00,-0.06,-2.20,-10.86
91413,0.17,-0.00,1.01,2.08,-2.26,-13.61
91429,0.10,0.02,1.00,-1.46,-2.99,-14.71
91445,0.08,0.03,1.00,-0.73,-2.87,-15.93
91461,0.08,0.03,1.02,0.12,-2.32,-20.63
91477,0.07,0.01,1.00,1.40,-1.40,-20.94
91493,0.06,0.03,1.02,2.75,-1.83,-21.61
91509,0.05,0.01,1.00,-7.02,-2.81,-22.09
91525,0.06,0.02,0.98,-0.06,-2.75,-21.42
91541,0.07,0.04,0.99,8.00,-2.56,-22.28
91557,0.06,0.05,1.02,16.85,-1.59,-26.49
91573,0.08,0.07,1.01,5.19,-2.50,-25.88
91589,0.09,0.08,1.00,0.55,-2.50,-21.61
91605,0.08,0.08,1.00,-0.73,-2.81,-13.31
91621,0.08,0.12,1.00,5.74,-2.62,-10.68
91637,0.07,0.12,1.00,2.87,-2.56,-10.38
91653,-0.00,0.21,1.01,3.78,-3.05,-6.16
91669,-0.03,0.25,1.00,-1.10,-3.05,-4.76
91685,-0.02,0.27,1.00,-1.10,-2.93,-4.82
91701,0.03,0.29,0.99,0.98,-1.71,-2.56
91717,0.06,0.26,1.00,3.54,-2.26,3.60
91733,0.06,0.24,1.00,3.30,-2.08,7.57
91749,-0.01,0.24,1.00,0.37,-1.53,14.71
91765,-0.06,0.22,1.00,-1.04,-2.08,19.29
91781,-0.07,0.20,1.00,-0.31,-2.01,22.77
91797,-0.05,0.14,1.00,0.06,-1.53,28.63
91813,-0.05,0.10,1.00,0.37,-1.28,31.43
91829,-0.04,0.09,1.00,2.08,-0.67,31.43
91845,-0.05,0.06,1.00,2.14,-1.46,29.42
91861,-0.07,0.05,1.00,1.40,-1.40,25.27
91877,-0.09,0.05,1.00,1.10,-1.77,23.50
91893,-0.11,0.05,1.00,1.89,-2.26,21.18
91909,-0.12,0.04,1.00,3.11,-1.77,19.29
91925,-0.12,0.04,1.00,2.87,-1.65,18.49
91941,-0.13,0.02,1.00,1.16,-1.22,13.98
91957,-0.12,0.01,1.00,2.50,-0.85,10.13
91973,-0.13,0.03,1.00,2.32,-1.16,8.67
91989,-0.13,0.03,1.01,1.53,-1.46,7.51
92005,-0.14,0.04,1.00,1.83,-1.83,4.15
92021,-0.13,0.04,1.00,2.44,-2.01,2.44
92037,-0.12,0.04,1.00,1.46,-2.14,1.10
92053,-0.12,0.06,1.00,1.83,-2.26,0.31
92069,-0.11,0.07,1.00,2.75,-2.01,0.06
92085,-0.10,0.06,1.00,1.59,-2.20,3.78
92101,-0.10,0.04,1.00,0.43,-2.50,10.01
92117,-0.10,0.03,1.00,0.49,-2.44,12.82
92133,-0.10,0.04,1.00,3.48,-2.01,13.73
92149,-0.09,0.05,1.00,4.46,-1.65,12.82
92165,-0.08,0.03,1.00,3.30,-1.34,14.71
92181,-0.09,-0.01,1.00,0.67,-1.71,19.59
92197,-0.10,-0.02,1.01,0.92,-1.53,22.46
92213,-0.11,-0.04,1.00,-0.67,-1.16,22.28
92229,-0.10,-0.09,1.01,0.92,-0.73,20.45
92245,-0.08,-0.10,1.00,2.69,-0.61,17.33
92261,-0.05,-0.11,1.00,2.50,-0.98,16.17
92277,-0.05,-0.14,1.01,0.24,-0.98,12.15
92293,-0.06,-0.17,1.01,-0.67,-1.77,9.52
92309,-0.12,-0.18,1.01,0.92,-1.28,8.97
92325,-0.11,-0.23,1.01,0.85,-1.04,9.70
92341,-0.06,-0.24,1.01,1.83,-1.40,10.44
92357,-0.03,-0.23,1.00,-0.73,-2.14,10.13
92373,-0.01,-0.26,1.01,0.67,-1.40,7.08
92389,-0.01,-0.26,1.01,2.26,-2.01,6.71
92405,0.02,-0.26,1.00,-0.12,-0.98,7.14
92421,0.04,-0.24,1.00,2.75,-1.28,1.77
92437,0.03,-0.20,1.01,2.62,-1.16,-2.75
92453,0.03,-0.18,1.00,0.79,-1.22,-11.41
92469,0.07,-0.18,1.00,1.77,-2.20,-14.34
92485,0.07,-0.18,1.01,3.48,-1.77,-13.61
92501,0.08,-0.21,1.00,2.81,-2.20,-9.34
92517,0.12,-0.20,1.00,1.77,-2.14,-5.62
92533,0.14,-0.17,1.01,2.20,-1.83,-6.77
92549,0.18,-0.12,1.00,-0.61,-1.83,-14.89
92565,0.16,-0.05,1.01,-1.04,-2.32,-25.76
92581,0.13,-0.04,1.00,0.67,-2.56,-29.60
92597,0.14,-0.02,1.02,10.93,-1.71,-28.26
92613,0.16,-0.03,1.00,-0.85,-1.89,-20.14
92629,0.16,-0.04,1.00,-0.31,-2.14,-15.93
92645,0.14,-0.04,1.01,1.89,-2.38,-14.59
92661,0.16,-0.00,0.99,-4.64,-2.26,-16.54
92677,0.16,0.01,0.99,0.92,-1.95,-15.50
92693,0.18,0.02,1.00,5.86,-1.89,-23.50
92709,0.16,0.05,1.01,0.24,-2.87,-28.02
92725,0.15,0.04,1.00,-4.03,-3.17,-28.08
92741,0.12,0.06,1.00,1.59,-2.38,-27.95
92757,0.11,0.09,1.00,5.43,-1.65,-31.07
92773,0.10,0.10,1.01,7.08,-1.46,-30.94
92789,0.10,0.11,1.01,3.30,-2.01,-26.86
92805,0.10,0.12,1.00,1.16,-2.62,-19.84
92821,0.10,0.09,1.00,-1.22,-2.75,-17.09
92837,0.13,0.09,0.99,-0.92,-2.56,-12.94
92853,0.10,0.13,1.02,4.94,-2.14,-14.28
92869,0.12,0.13,0.99,0.37,-1.89,-16.60
92885,0.08,0.18,1.00,4.76,-2.08,-15.81
92901,0.07,0.21,1.00,1.77,-3.05,-15.20
92917,0.08,0.21,0.99,-0.31,-3.05,-13.49
92933,0.06,0.21,1.00,1.16,-2.32,-7.26
92949,0.00,0.21,1.00,1.04,-2.44,-2.87
92965,-0.03,0.24,0.99,0.55,-2.08,-0.43
92981,-0.08,0.27,1.00,2.32,-2.26,3.42
92997,-0.05,0.25,0.99,1.83,-1.89,6.71
93013,-0.04,0.22,1.00,2.93,-1.77,8.54
93029,-0.04,0.17,1.00,2.62,-1.34,11.60
93045,-0.07,0.14,1.00,1.46,-2.20,14.16
93061,-0.07,0.15,1.00,2.44,-1.77,15.56
93077,-0.07,0.18,1.00,2.44,-1.95,16.60
93093,-0.08,0.19,1.00,1.10,-2.20,16.05
93109,-0.08,0.18,1.00,-0.67,-2.56,16.60
93125,-0.13,0.13,1.00,-1.53,-1.28,20.57
93141,-0.16,0.09,1.01,0.85,-1.40,23.56
93157,-0.17,0.07,1.00,1.89,-1.95,23.25
93173,-0.19,0.03,1.00,2.26,-2.08,22.34
93189,-0.18,0.01,1.00,2.99,-1.59,25.63
93205,-0.16,0.01,1.00,1.95,-1.22,25.45
93221,-0.14,0.00,1.00,2.14,-0.85,23.25
93237,-0.12,0.01,1.00,2.69,-1.04,18.68
93253,-0.12,0.02,1.01,3.36,-1.16,16.30
93269,-0.12,0.04,1.00,2.56,-2.01,10.62
93285,-0.11,0.06,1.01,2.38,-1.89,9.03
93301,-0.10,0.07,1.00,1.22,-2.01,11.60
93317,-0.09,0.07,1.00,1.71,-1.95,19.17
93333,-0.09,0.07,1.00,1.71,-1.59,22.46
93349,-0.10,0.04,1.00,0.31,-1.65,27.28
93365,-0.09,0.02,1.00,1.34,-2.62,28.87
93381,-0.10,0.00,0.99,1.95,-2.20,29.66
93397,-0.10,-0.01,1.00,2.01,-1.46,31.62
93413,-0.10,-0.03,1.00,2.20,-0.85,30.82
93429,-0.12,-0.04,1.00,2.87,-0.85,29.85
93445,-0.17,-0.04,1.01,0.31,-1.16,26.37
93461,-0.15,-0.04,1.00,-0.92,-0.85,21.30
93477,-0.14,-0.03,1.00,-0.06,-0.73,21.12
93493,-0.13,-0.09,1.01,0.92,-0.67,23.44
93509,-0.14,-0.12,1.01,3.48,-0.55,23.99
93525,-0.15,-0.13,1.00,3.23,-0.92,22.09
93541,-0.09,-0.16,1.01,0.85,-0.98,19.96
93557,-0.02,-0.20,1.01,-1.04,-0.49,22.28
93573,-0.02,-0.20,1.00,-0.06,-1.71,22.89
93589,-0.03,-0.23,1.01,3.54,-1.46,21.12
93605,-0.06,-0.29,1.02,0.61,-0.85,15.81
93621,-0.04,-0.29,1.01,1.04,-0.92,13.43
93637,0.06,-0.28,1.00,2.14,-1.65,7.93
93653,0.11,-0.28,1.01,1.34,-1.04,4.76
93669,0.07,-0.25,1.01,2.62,-1.34,1.77
93685,-0.01,-0.25,1.00,1.04,-1.34,-5.07
93701,0.04,-0.23,1.01,0.24,-0.85,-8.85
93717,0.07,-0.22,1.01,1.40,-1.22,-10.44
93733,0.12,-0.21,1.01,4.39,-2.69,-13.12
93749,0.11,-0.23,1.01,1.34,-2.69,-13.18
93765,0.10,-0.23,1.00,0.18,-2.99,-13.73
93781,0.07,-0.19,1.01,0.55,-2.38,-18.74
93797,0.09,-0.15,1.01,4.94,-1.22,-25.33
93813,0.13,-0.14,1.01,4.70,-1.16,-27.04
93829,0.16,-0.13,1.01,-1.46,-1.28,-25.94
93845,0.16,-0.09,1.01,-1.71,-2.44,-23.32
93861,0.13,-0.07,1.00,0.18,-3.36,-22.58
93877,0.12,0.02,1.00,5.37,-2.75,-23.38
93893,0.15,0.04,1.00,1.28,-1.71,-23.32
93909,0.15,0.04,1.00,1.16,-1.77,-21.36
93925,0.14,0.03,1.00,4.03,-2.50,-22.64
93941,0.17,0.06,1.01,-0.61,-2.93,-25.88
93957,0.18,0.06,0.98,-4.52,-2.99,-26.12
93973,0.17,0.14,1.01,3.05,-2.81,-30.21
93989,0.10,0.13,0.99,-4.21,-3.78,-31.37
94005,0.09,0.13,1.00,-0.49,-3.11,-26.73
94021,0.10,0.06,0.99,3.72,-1.83,-20.14
94037,0.06,0.01,1.01,4.58,-1.16,-18.01
94053,0.05,0.01,1.01,3.97,-1.53,-18.74
94069,0.03,0.05,1.00,2.62,-2.56,-21.30
94085,0.07,0.09,1.00,0.12,-2.93,-22.40
94101,0.09,0.10,1.00,-1.53,-3.05,-21.97
94117,0.08,0.11,1.01,2.38,-2.56,-18.31
94133,0.06,0.09,1.00,1.95,-2.20,-15.38
94149,0.05,0.09,1.00,3.17,-2.38,-13.55
94165,0.06,0.12,1.00,4.21,-1.77,-10.80
94181,0.05,0.17,1.00,1.71,-2.01,-8.91
94197,0.03,0.20,1.00,2.14,-2.50,-9.70
94213,0.01,0.25,1.00,1.59,-2.38,-16.36
94229,0.03,0.25,0.97,-0.43,-3.05,-22.77
94245,0.03,0.24,1.00,-0.18,-2.32,-21.36
94261,-0.01,0.23,1.00,0.49,-2.32,-11.41
94277,-0.02,0.21,1.00,1.34,-2.38,0.24
94293,-0.04,0.19,1.00,3.11,-2.01,4.09
94309,-0.05,0.16,1.01,3.48,-1.83,7.39
94325,-0.05,0.15,1.00,2.14,-2.20,8.91
94341,-0.03,0.14,1.00,1.10,-2.38,9.95
94357,-0.06,0.15,1.01,0.85,-2.14,10.80
94373,-0.07,0.16,1.00,2.14,-2.14,9.03
94389,-0.09,0.16,1.00,1.95,-2.01,8.54
94405,-0.09,0.13,1.00,3.78,-1.83,11.72
94421,-0.09,0.10,1.01,2.14,-2.14,13.85
94437,-0.09,0.07,1.00,0.55,-2.08,17.82
94453,-0.09,0.08,1.00,-1.77,-1.59,18.62
94469,-0.10,0.09,1.00,-2.08,-1.65,17.88
94485,-0.12,0.09,1.01,0.79,-1.22,16.78
94501,-0.13,0.07,1.00,2.20,-1.77,18.86
94517,-0.13,0.05,1.01,2.93,-1.83,20.39
94533,-0.12,0.02,1.00,3.11,-2.08,22.89
94549,-0.10,0.03,1.00,1.83,-1.34,21.97
94565,-0.09,0.03,1.00,1.46,-1.10,21.55
94581,-0.08,0.04,1.00,1.53,-0.98,19.90
94597,-0.08,0.05,1.00,2.20,-1.28,19.04
94613,-0.07,0.05,1.01,2.32,-1.59,18.55
94629,-0.07,0.04,1.00,2.08,-1.95,19.53
94645,-0.08,0.01,1.00,0.24,-2.14,23.80
94661,-0.07,-0.02,1.00,-0.06,-2.01,25.63
94677,-0.09,-0.00,1.00,0.61,-1.59,25.88
94693,-0.08,0.01,1.00,1.77,-2.01,21.73
94709,-0.08,0.00,1.01,2.87,-2.44,21.55
94725,-0.10,-0.01,1.00,2.44,-2.08,23.86
94741,-0.11,-0.03,1.00,2.99,-1.77,23.93
94757,-0.12,-0.02,1.00,2.69,-1.53,23.62
94773,-0.11,-0.04,1.00,3.17,-0.92,23.86
94789,-0.12,-0.04,1.00,1.22,-1.16,26.00
94805,-0.11,-0.06,1.01,0.24,-1.28,25.76
94821,-0.13,-0.08,1.00,-2.20,-1.46,23.25
94837,-0.16,-0.04,1.00,0.92,-0.67,19.17
94853,-0.14,-0.03,1.00,1.28,-1.16,17.58
94869,-0.08,-0.05,1.00,4.70,-0.49,17.03
94885,-0.08,-0.13,1.01,3.48,-0.98,19.35
94901,-0.06,-0.16,1.01,2.75,-1.34,20.26
94917,-0.07,-0.19,1.01,0.61,-1.10,18.68
94933,-0.03,-0.17,1.00,1.89,-2.20,12.76
94949,-0.04,-0.18,1.01,0.73,-1.77,9.46
94965,-0.01,-0.21,1.01,-0.67,-1.46,5.49
94981,-0.00,-0.24,1.01,0.37,-1.34,8.67
94997,-0.02,-0.24,1.01,0.98,-1.65,10.74
95013,0.00,-0.23,1.02,-1.28,-0.98,10.31
95029,0.04,-0.22,1.01,3.17,-1.04,4.27
95045,0.09,-0.21,1.00,3.30,-0.85,1.71
95061,0.13,-0.22,1.01,0.85,-1.28,-0.61
95077,0.10,-0.24,1.01,4.76,-2.08,-3.97
95093,0.08,-0.23,1.01,4.94,-2.08,-6.53
95109,0.05,-0.22,1.00,2.14,-2.99,-10.25
95125,0.09,-0.22,1.01,-0.06,-2.62,-11.60
95141,0.09,-0.22,1.01,-0.61,-2.26,-11.72
95157,0.14,-0.19,1.01,3.17,-1.59,-12.88
95173,0.17,-0.15,1.00,0.18,-1.22,-16.54
95189,0.16,-0.13,1.00,0.24,-1.16,-18.49
95205,0.18,-0.07,1.00,2.08,-2.44,-19.47
95221,0.20,-0.04,1.02,3.78,-2.20,-20.39
95237,0.21,0.04,1.01,5.80,-2.26,-19.71
95253,0.19,0.05,1.01,-0.55,-2.56,-17.40
95269,0.22,0.06,1.01,2.56,-2.50,-15.75
95285,0.22,0.05,1.00,2.75,-2.44,-17.33
95301,0.19,0.06,1.01,-2.32,-2.50,-19.96
95317,0.19,0.05,0.99,4.15,-2.44,-16.11
95333,0.17,0.07,1.01,0.61,-2.75,-17.21
95349,0.10,0.06,0.99,-5.98,-2.56,-16.42
95365,0.08,0.03,0.99,4.03,-1.89,-15.63
95381,0.06,-0.01,1.00,7.20,-1.83,-16.97
95397,0.04,0.03,1.02,7.81,-1.95,-20.26
95413,0.05,0.05,1.02,-0.06,-3.05,-23.19
95429,0.10,0.09,1.00,0.49,-2.81,-22.28
95445,0.14,0.15,1.00,-1.71,-2.93,-19.84
95461,0.14,0.16,0.99,-1.16,-2.93,-19.23
95477,0.17,0.20,1.02,3.97,-3.23,-21.79
95493,0.16,0.28,0.99,3.05,-3.66,-25.57
95509,0.13,0.32,0.99,0.18,-3.60,-26.25
95525,0.07,0.34,0.99,-2.62,-2.20,-24.29
95541,-0.05,0.32,1.00,-0.31,-2.38,-10.56
95557,-0.07,0.29,1.00,-1.34,-2.75,-0.06
95573,-0.14,0.19,1.00,0.43,-1.77,21.18
95589,-0.14,0.11,1.00,2.81,-1.28,32.84
95605,-0.17,0.08,1.01,1.10,-1.95,33.63
95621,-0.21,0.09,1.00,-0.31,-1.28,29.48
95637,-0.19,0.12,1.00,1.10,-1.59,21.42
95653,-0.17,0.14,1.00,1.10,-1.77,16.66
95669,-0.19,0.18,1.00,1.89,-2.01,5.98
95685,-0.19,0.19,1.00,1.83,-1.95,-2.01
95701,-0.17,0.18,1.00,2.26,-1.71,-3.85
95717,-0.14,0.14,1.01,3.30,-1.59,-1.71
95733,-0.13,0.13,1.00,2.20,-2.01,1.10
95749,-0.14,0.15,1.00,2.75,-2.38,-0.18
95765,-0.13,0.15,1.00,4.03,-1.83,-8.12
95781,-0.09,0.18,1.00,4.27,-1.65,-9.22
95797,-0.08,0.19,1.00,3.91,-1.89,-5.55
95813,-0.09,0.17,1.00,0.73,-1.83,7.26
95829,-0.10,0.11,1.00,-1.34,-0.98,22.28
95845,-0.11,0.06,1.01,0.31,-1.16,27.95
95861,-0.14,-0.02,1.00,3.23,-1.22,34.00
95877,-0.13,-0.11,1.00,2.69,-1.89,35.03
95893,-0.12,-0.16,1.01,2.93,-1.65,34.73
95909,-0.11,-0.25,1.01,2.75,-1.28,32.47
95925,-0.08,-0.31,1.01,2.26,-1.53,28.50
95941,-0.07,-0.31,1.01,3.30,-1.34,26.37
95957,-0.06,-0.30,1.01,2.75,-2.32,23.56
95973,-0.13,-0.23,1.01,2.87,-1.53,16.05
95989,-0.11,-0.21,1.01,1.59,-1.28,13.55
96005,-0.07,-0.18,1.01,2.81,-1.22,11.96
96021,-0.04,-0.17,1.00,2.81,-0.92,15.20
96037,-0.08,-0.15,1.00,2.81,-1.04,16.11
96053,-0.17,-0.13,1.00,3.36,-0.73,17.70
96069,-0.07,-0.13,1.00,4.33,-0.98,20.63
96085,-0.04,-0.12,1.00,-1.53,-1.59,21.67
96101,0.00,-0.10,1.01,1.59,-1.53,13.37
96117,0.03,-0.07,1.01,6.10,-0.31,2.69
96133,0.05,-0.08,1.00,4.76,0.61,-2.62
96149,0.10,-0.10,1.02,4.46,0.12,-8.79
96165,0.05,-0.06,1.00,8.24,-0.06,-5.62
96181,0.02,-0.05,0.99,4.46,-0.12,-4.82
96197,0.08,-0.03,1.00,-1.22,-2.56,-7.02
96213,0.14,-0.03,1.01,-2.32,-3.30,-11.72
96229,0.17,-0.05,1.01,-4.88,-2.93,-13.85
96245,0.14,-0.10,1.01,-5.62,-3.36,-17.46
96261,0.12,-0.15,1.01,-4.39,-2.93,-18.25
96277,0.16,-0.13,1.00,-5.25,-3.05,-16.24
96293,0.24,-0.09,1.03,-2.56,-2.69,-10.31
96309,0.28,-0.09,0.99,-3.66,-2.26,-6.35
96325,0.29,-0.09,0.99,2.81,-1.95,-2.99
96341,0.25,-0.02,1.03,-0.98,-1.46,1.95
96357,0.23,-0.03,1.03,-22.64,-0.73,-5.49
96373,0.20,-0.04,0.99,-24.72,-1.04,-10.44
96389,0.14,-0.02,0.98,-18.01,-2.08,-22.89
96405,0.11,-0.03,0.98,0.00,-2.32,-33.69
96421,0.06,-0.06,0.95,13.61,-1.95,-34.30
96437,0.10,-0.01,1.03,35.10,-2.14,-22.89
96453,0.14,-0.02,1.01,21.73,-2.56,-11.96
96469,0.14,0.02,1.02,16.66,-2.81,-5.55
96485,0.08,0.05,1.02,-5.74,-2.20,2.08
96501,0.04,0.04,1.02,-12.08,-2.14,8.00
96517,-0.01,0.02,0.99,-11.47,-0.55,11.72
96533,-0.02,0.03,0.97,0.85,0.18,21.36
96549,-0.01,0.06,0.96,9.83,-1.89,27.34
96565,-0.03,0.21,1.06,13.73,-7.81,34.06
96581,-0.09,0.26,0.99,-1.22,-2.14,17.21
96597,-0.10,0.25,1.00,-2.20,-2.26,8.54
96613,-0.06,0.21,1.00,4.64,-1.89,-0.55
96629,0.03,0.16,1.00,8.18,-1.53,-2.38
96645,0.05,0.13,1.00,7.87,-1.40,-2.01
96661,0.05,0.11,1.00,5.55,-1.04,-0.06
96677,0.00,0.16,1.00,2.75,-1.46,3.48
96693,-0.06,0.21,1.00,-0.31,-1.65,2.81
96709,-0.11,0.22,1.00,-1.59,-2.50,-9.09
96725,-0.01,0.19,1.00,2.50,-2.69,-20.39
96741,0.03,0.16,1.01,4.46,-2.44,-24.60
96757,0.09,0.13,1.00,4.76,-1.95,-29.48
96773,0.07,0.14,1.00,3.85,-2.08,-31.25
96789,0.04,0.15,1.00,4.03,-1.89,-30.64
96805,-0.09,0.19,1.00,-0.98,-2.99,-26.43
96821,-0.18,0.13,1.00,-3.72,-2.75,-19.29
96837,-0.17,0.09,1.01,-1.04,-1.95,-12.15
96853,-0.11,0.03,1.01,0.31,-2.38,6.04
96869,-0.03,0.02,1.00,2.01,-2.32,21.30
96885,-0.01,0.05,1.00,2.81,-2.01,23.74
96901,-0.06,0.07,1.00,4.64,-1.28,22.28
96917,-0.10,0.10,1.00,2.69,-1.22,9.22
96933,-0.11,0.11,1.00,3.11,-1.28,3.05
96949,-0.10,0.11,1.00,0.92,-1.40,4.33
96965,-0.06,0.11,1.00,0.73,-1.46,13.37
96981,-0.06,0.11,1.00,1.22,-1.53,18.13
96997,-0.08,0.08,1.00,2.08,-1.71,22.34
97013,-0.08,0.05,1.00,1.83,-1.89,24.48
97029,-0.10,0.06,1.01,0.79,-2.01,25.51
97045,-0.08,0.03,1.00,-0.55,-2.44,24.11
97061,-0.11,-0.02,1.00,2.87,-2.32,24.96
97077,-0.11,-0.07,1.00,2.99,-2.14,27.34
97093,-0.08,-0.07,1.00,1.04,-1.59,32.78
97109,-0.12,-0.07,1.00,0.55,-1.40,26.98
97125,-0.12,-0.05,1.01,3.91,-1.28,21.91
97141,-0.13,-0.06,1.01,2.14,-1.34,17.27
97157,-0.14,-0.09,1.00,0.85,-1.22,16.30
97173,-0.13,-0.11,1.00,-0.43,-1.22,17.46
97189,-0.09,-0.18,1.00,-1.10,-0.85,22.89
97205,-0.12,-0.21,1.02,0.98,-1.40,25.21
97221,-0.12,-0.22,1.01,-0.12,-1.77,25.39
97237,-0.11,-0.18,1.01,0.43,-1.59,25.02
97253,-0.12,-0.14,1.00,1.71,-1.59,16.36
97269,-0.12,-0.15,1.00,2.14,-1.77,10.19
97285,-0.09,-0.19,1.01,2.50,-1.04,0.79
97301,-0.07,-0.17,1.01,5.13,-1.89,-0.24
97317,-0.07,-0.16,1.01,3.23,-2.20,1.40
97333,-0.05,-0.07,1.01,1.28,-0.67,4.58
97349,-0.03,-0.06,1.00,2.56,-2.26,6.41
97365,0.01,-0.09,1.00,1.89,-1.53,8.97
97381,0.03,-0.18,1.01,1.10,-1.10,17.46
97397,-0.02,-0.21,1.00,3.30,-0.55,19.96
97413,0.06,-0.20,1.01,-0.61,-1.34,20.39
97429,0.08,-0.15,1.01,4.46,-1.22,11.78
97445,0.10,-0.13,1.01,3.11,-2.20,0.00
97461,0.11,-0.13,1.00,1.77,-2.38,-4.03
97477,0.14,-0.15,1.01,1.46,-2.50,-8.48
97493,0.15,-0.16,1.01,2.69,-1.34,-10.86
97509,0.14,-0.13,1.00,4.09,-0.79,-13.55
97525,0.15,-0.12,1.01,0.00,-2.44,-18.74
97541,0.16,-0.13,1.01,15.56,-2.69,-19.78
97557,0.16,-0.15,1.01,1.40,-2.75,-19.65
97573,0.20,-0.14,1.01,-0.12,-2.14,-18.80
97589,0.21,-0.11,1.00,-0.73,-2.01,-19.10
97605,0.21,-0.03,1.01,0.92,-2.20,-22.89
97621,0.17,0.03,1.00,1.04,-2.32,-20.63
97637,0.17,0.03,1.00,-0.73,-2.01,-18.62
97653,0.19,0.04,1.00,-1.22,-2.38,-12.45
97669,0.20,0.03,1.00,1.65,-2.44,-11.78
97685,0.19,0.02,1.01,1.34,-2.50,-12.76
97701,0.13,-0.00,1.00,3.60,-2.20,-12.70
97717,0.07,-0.02,1.00,0.43,-1.65,-14.47
97733,0.03,-0.05,0.99,0.85,-1.89,-13.73
97749,0.02,-0.04,1.02,0.92,-2.69,-16.30
97765,0.02,-0.03,0.98,-1.89,-2.38,-18.19
97781,0.03,-0.02,0.99,4.33,-2.01,-17.09
97797,0.07,-0.03,1.00,6.96,-1.53,-19.35
97813,0.11,-0.01,1.00,4.27,-2.20,-24.54
97829,0.12,0.03,1.01,2.08,-2.26,-27.77
97845,0.13,0.10,1.00,-0.79,-3.36,-32.23
97861,0.14,0.13,1.00,-1.95,-3.05,-31.74
97877,0.13,0.13,1.01,-2.01,-3.36,-29.36
97893,0.07,0.16,1.01,2.20,-3.23,-24.35
97909,0.02,0.25,1.00,1.71,-2.99,-23.99
97925,0.05,0.28,1.00,2.26,-3.17,-23.80
97941,0.08,0.29,1.00,3.11,-1.16,-19.10
97957,0.06,0.31,1.00,0.98,-2.75,-10.56
97973,-0.02,0.31,1.00,-1.28,-2.32,-5.80
97989,-0.21,0.32,1.00,1.53,-1.95,1.53
98005,-0.20,0.26,1.00,2.69,-1.71,2.87
98021,-0.18,0.23,1.01,2.75,-1.53,5.49
98037,-0.11,0.19,1.00,0.85,-1.71,13.85
98053,-0.09,0.12,1.00,3.17,-1.65,20.14
98069,-0.09,0.10,1.00,3.36,-1.59,21.00
98085,-0.08,0.09,1.00,3.66,-1.71,18.74
98101,-0.04,0.13,1.00,2.81,-1.89,14.40
98117,-0.02,0.16,1.00,1.89,-2.14,12.21
98133,-0.00,0.17,1.00,0.18,-2.14,7.93
98149,-0.02,0.16,1.00,-1.16,-1.22,8.91
98165,-0.07,0.16,1.01,-0.37,-1.34,10.01
98181,-0.15,0.13,1.00,1.28,-2.62,8.30
98197,-0.17,0.07,1.01,3.60,-1.89,8.67
98213,-0.15,0.09,1.00,4.15,-1.65,10.25
98229,-0.14,0.06,1.00,3.60,-1.04,16.17
98245,-0.12,0.07,1.00,2.81,-0.85,18.92
98261,-0.14,0.07,1.01,2.14,-0.85,18.80
98277,-0.10,0.05,1.00,1.46,-1.77,17.09
98293,-0.10,0.05,1.01,0.55,-2.14,21.97
98309,-0.12,0.06,1.00,0.73,-2.14,24.54
98325,-0.12,0.04,1.00,0.92,-1.71,28.26
98341,-0.11,-0.02,1.00,0.55,-2.56,31.92
98357,-0.11,-0.03,1.00,1.95,-2.26,33.94
98373,-0.11,-0.09,1.00,1.65,-1.89,34.97
98389,-0.12,-0.12,1.01,0.12,-1.53,31.01
98405,-0.12,-0.16,1.00,-1.16,-1.46,28.08
98421,-0.12,-0.12,1.01,4.82,-1.16,20.63
98437,-0.09,-0.10,1.01,2.56,-1.34,13.79
98453,-0.09,-0.10,1.00,-0.24,-1.40,13.55
98469,-0.08,-0.11,1.01,-1.16,-1.16,16.36
98485,-0.10,-0.15,1.00,-0.06,-1.10,20.14
98501,-0.08,-0.18,1.00,-1.34,-1.16,19.41
98517,-0.09,-0.18,1.01,0.98,-1.28,13.67
98533,-0.09,-0.19,1.00,3.97,-1.65,4.27
98549,-0.08,-0.13,1.01,3.05,-1.65,1.46
98565,-0.03,-0.12,1.00,0.61,-2.20,0.24
98581,-0.01,-0.13,1.00,0.24,-1.95,2.26
98597,-0.03,-0.17,1.01,-0.79,-2.26,3.30
98613,0.00,-0.15,1.01,4.64,-1.65,8.85
98629,0.01,-0.16,1.00,1.16,-1.89,10.99
98645,-0.05,-0.16,1.01,-0.12,-1.46,12.08
98661,-0.06,-0.17,1.00,-0.43,-1.65,11.66
98677,-0.01,-0.17,1.00,1.10,-1.53,11.90
98693,0.07,-0.17,1.01,2.20,-1.40,12.88
98709,0.06,-0.19,1.00,4.15,-0.85,14.34
98725,0.06,-0.22,1.00,1.71,-1.28,15.20
98741,0.03,-0.21,1.00,0.98,-1.34,19.65
98757,0.04,-0.19,1.01,-0.92,-1.89,18.80
98773,0.07,-0.18,1.01,-1.10,-2.26,16.11
98789,0.11,-0.16,1.01,-5.68,-2.50,8.42
98805,0.12,-0.13,0.99,-5.55,-1.65,-2.26
98821,0.12,-0.11,0.98,0.24,-1.40,-7.81
98837,0.14,-0.04,1.00,12.45,-1.77,-13.49
98853,0.15,0.05,1.02,6.77,-0.98,-17.40
98869,0.15,0.05,1.00,0.37,-1.22,-18.49
98885,0.16,0.06,0.99,1.77,-2.38,-15.63
98901,0.17,0.04,1.00,11.54,-1.83,-10.80
98917,0.19,0.02,1.01,3.66,-2.08,-7.87
98933,0.21,0.04,1.00,-1.71,-2.01,0.85
98949,0.19,0.04,1.00,-1.04,-2.08,0.06
98965,0.16,0.04,1.00,0.55,-2.08,-3.11
98981,0.11,0.04,1.00,0.37,-2.75,-9.09
98997,0.10,0.05,1.00,2.62,-2.44,-12.57
99013,0.12,0.04,1.01,1.89,-2.44,-13.73
99029,0.13,0.01,1.00,3.91,-1.89,-12.70
99045,0.10,-0.00,1.00,2.81,-1.40,-15.38
99061,0.08,0.01,1.01,1.71,-1.77,-16.54
99077,0.11,0.04,1.01,-2.50,-2.14,-18.37
99093,0.15,0.05,0.98,-3.54,-1.83,-19.41
99109,0.14,0.05,0.98,3.85,-2.01,-17.58
99125,0.09,0.09,1.01,13.18,-2.01,-13.73
99141,0.09,0.11,1.00,1.83,-2.62,-13.00
99157,0.11,0.12,1.00,-1.89,-2.56,-12.08
99173,0.12,0.12,1.00,-0.85,-2.81,-11.96
99189,0.13,0.12,1.00,6.29,-2.62,-14.77
99205,0.15,0.14,1.01,8.67,-2.93,-15.20
99221,0.10,0.16,1.00,1.34,-2.26,-17.15
99237,-0.00,0.15,1.00,-2.14,-2.32,-18.13
99253,-0.02,0.15,0.99,-0.12,-1.95,-16.54
99269,0.02,0.14,1.00,2.44,-1.65,-11.11
99285,0.03,0.16,1.01,3.54,-1.65,-5.00
99301,0.04,0.17,0.99,4.64,-1.16,-3.11
99317,-0.05,0.17,1.00,1.46,-1.40,-1.28
99333,-0.20,0.17,0.99,1.04,-2.99,-0.79
99349,-0.20,0.14,1.00,2.01,-3.05,0.37
99365,-0.14,0.12,1.00,1.77,-3.05,8.48
99381,-0.13,0.10,1.01,-0.24,-3.05,15.38
99397,-0.11,0.08,1.01,-0.61,-1.89,18.25
99413,-0.06,0.06,1.00,2.08,-0.43,19.71
99429,-0.05,0.07,1.00,2.81,-1.10,16.78
99445,-0.07,0.07,1.00,1.95,-1.83,13.18
99461,-0.15,0.11,1.00,3.05,-2.69,4.39
99477,-0.15,0.09,1.00,1.65,-2.50,-1.53
99493,-0.16,0.07,1.00,0.24,-2.62,1.40
99509,-0.15,0.04,1.00,-0.49,-2.14,13.85
99525,-0.14,0.02,1.00,0.55,-1.89,21.48
99541,-0.18,-0.01,1.01,1.89,-1.71,20.45
99557,-0.20,-0.06,1.01,0.55,-2.01,13.24
99573,-0.20,-0.09,1.01,0.61,-2.26,7.08
99589,-0.21,-0.08,1.00,2.75,-2.14,6.29
99605,-0.20,0.00,1.00,4.88,-1.77,3.36
99621,-0.19,0.03,1.00,3.66,-1.83,0.73
99637,-0.17,0.01,1.02,2.75,-1.83,2.44
99653,-0.15,0.01,1.01,1.89,-1.40,10.25
99669,-0.13,0.02,1.01,1.28,-1.10,18.80
99685,-0.12,0.02,1.00,1.22,-1.46,20.32
99701,-0.12,-0.00,1.00,0.49,-0.92,20.57
99717,-0.10,-0.02,1.00,1.34,-0.67,20.57
99733,-0.09,0.01,1.00,2.69,-1.10,19.10
99749,-0.09,0.01,1.01,-0.73,-0.43,17.21
99765,-0.09,-0.01,1.00,-0.67,-0.67,17.52
99781,-0.03,-0.03,1.01,1.22,-0.73,21.36
99797,0.00,-0.06,0.99,0.55,-0.31,22.77
99813,0.02,-0.05,1.00,2.20,-0.98,20.81
99829,0.01,-0.07,1.00,1.53,-1.46,15.63
99845,-0.00,-0.10,1.01,1.40,-1.40,12.21
99861,-0.01,-0.13,1.01,3.17,-1.46,11.66
99877,-0.02,-0.18,1.00,2.01,-1.22,11.90
99893,0.03,-0.25,1.02,-0.43,-0.79,11.54
99909,0.03,-0.27,1.01,0.24,-0.98,9.64
99925,0.07,-0.27,1.01,1.28,-1.53,3.85
99941,0.05,-0.26,1.00,0.24,-1.59,-0.73
99957,0.01,-0.23,1.00,1.40,-1.65,-4.15
99973,-0.04,-0.18,1.00,0.61,-1.53,-8.06
99989,0.05,-0.20,1.01,-0.18,-1.28,-3.85
100005,0.08,-0.22,1.02,3.36,-1.46,0.49