time,accel_x,accel_y,accel_z,gyro_x,gyro_y,gyro_z
210022,0.10,-0.16,1.00,0.92,-1.65,-2.75
210037,0.09,-0.19,1.00,0.92,-2.01,-3.05
210053,0.12,-0.19,1.01,3.66,-1.95,-7.93
210069,0.14,-0.17,1.01,1.95,-1.59,-13.18
210085,0.15,-0.16,1.00,2.01,-1.40,-14.83
210101,0.17,-0.10,1.00,3.23,-1.95,-17.88
210117,0.18,-0.03,1.00,-0.37,-1.95,-21.79
210133,0.18,-0.01,1.00,-2.08,-1.95,-22.40
210149,0.20,0.03,1.00,-1.89,-1.71,-19.90
210165,0.18,0.02,1.00,-0.73,-2.01,-15.87
210181,0.19,0.01,1.00,-0.37,-2.38,-15.01
210197,0.20,-0.00,1.00,2.38,-2.81,-16.91
210213,0.19,0.01,1.01,3.54,-3.23,-24.05
210229,0.17,0.02,1.00,2.99,-2.99,-28.02
210245,0.13,0.02,1.00,2.87,-2.75,-33.14
210261,0.08,0.04,1.00,1.28,-2.38,-36.44
210277,0.07,0.03,1.00,-0.12,-2.08,-38.39
210293,0.08,0.02,1.00,-1.59,-2.38,-42.05
210309,0.10,0.04,1.00,0.98,-2.01,-49.87
210325,0.12,0.08,1.00,2.81,-2.14,-53.28
210341,0.16,0.10,1.01,3.23,-2.20,-57.56
210357,0.10,0.12,1.00,1.53,-3.85,-56.95
210373,0.07,0.13,1.00,0.92,-3.85,-54.75
210389,-0.01,0.20,1.00,0.43,-4.03,-51.57
210405,0.02,0.21,1.00,-0.55,-2.56,-48.65
210421,0.04,0.22,1.00,0.79,-2.93,-46.51
210437,0.07,0.24,0.99,2.50,-2.75,-41.81
210453,0.08,0.21,1.00,2.69,-2.14,-34.55
210469,0.08,0.19,1.00,3.30,-2.87,-28.75
210485,0.01,0.17,1.00,4.39,-2.56,-18.43
210501,-0.12,0.14,1.00,2.01,-2.08,-10.62
210517,-0.11,0.14,1.01,0.79,-2.14,-8.36
210533,-0.10,0.15,1.00,0.61,-2.69,-7.39
210549,-0.07,0.19,1.00,1.89,-2.01,-7.63
210565,-0.08,0.20,1.00,1.89,-2.14,-6.41
210581,-0.12,0.17,1.00,1.40,-2.69,-0.31
210597,-0.15,0.14,1.00,3.85,-2.14,7.57
210613,-0.17,0.13,1.00,3.48,-2.14,10.80
210629,-0.18,0.07,1.00,2.01,-1.77,15.69
210645,-0.17,0.03,1.00,1.40,-1.65,15.63
210661,-0.16,0.03,1.00,1.59,-1.95,14.71
210677,-0.13,0.05,1.00,1.83,-2.01,13.00
210693,-0.12,0.06,1.00,-0.24,-1.71,15.99
210709,-0.12,0.06,1.00,-1.34,-1.16,19.04
210725,-0.15,0.04,1.01,-0.79,-1.28,25.02
210741,-0.16,0.03,1.00,0.85,-1.77,28.38
210757,-0.15,-0.01,1.00,0.67,-1.53,30.03
210773,-0.12,-0.03,1.00,1.77,-1.22,31.80
210789,-0.12,-0.04,1.00,3.72,-0.79,29.17
210805,-0.12,-0.03,1.00,4.03,-1.10,28.26
210821,-0.12,-0.01,1.00,3.36,-1.10,26.18
210837,-0.14,0.01,1.00,3.30,-1.59,26.55
210853,-0.14,0.05,1.00,3.91,-1.65,27.77
210869,-0.12,0.02,1.01,3.72,-1.16,34.42
210885,-0.10,-0.02,1.00,1.53,-1.16,39.18
210901,-0.09,-0.10,1.00,-3.23,-0.55,45.53
210917,-0.09,-0.16,1.01,-1.89,-1.04,44.31
210933,-0.09,-0.18,1.00,-1.04,-1.28,41.87
210949,-0.12,-0.22,1.00,-0.55,-0.98,36.74
210965,-0.10,-0.23,1.01,1.40,-0.79,28.44
210981,-0.10,-0.24,1.01,0.43,-0.98,25.15
210997,-0.09,-0.22,1.00,0.61,-0.98,18.80
211013,-0.06,-0.21,1.01,2.93,-1.10,12.51
211029,-0.05,-0.20,1.01,2.75,-1.59,11.41
211045,-0.01,-0.21,1.01,2.99,-1.10,13.73
211061,0.00,-0.21,1.00,1.28,-1.77,14.10
211077,0.03,-0.24,1.01,0.06,-2.01,12.33
211093,0.07,-0.25,1.01,4.03,-2.20,6.29
211109,0.06,-0.23,1.00,0.67,-2.38,-0.49
211125,0.07,-0.21,1.01,1.59,-2.08,-3.05
211141,0.11,-0.17,1.01,2.62,-2.14,-8.36
211157,0.12,-0.13,1.00,2.08,-1.34,-12.51
211173,0.15,-0.12,1.00,0.92,-2.01,-13.43
211189,0.16,-0.09,1.00,3.60,-1.77,-14.71
211205,0.16,-0.06,1.01,2.56,-2.38,-15.32
211221,0.17,-0.06,1.00,1.16,-2.26,-15.87
211237,0.20,-0.01,1.00,1.53,-1.89,-15.14
211253,0.19,0.02,1.01,2.01,-1.34,-13.98
211269,0.19,0.02,1.00,1.89,-1.40,-12.08
211285,0.18,0.04,1.00,1.10,-1.83,-10.44
211301,0.15,0.03,1.00,0.55,-1.83,-13.92
211317,0.14,0.01,1.00,1.16,-1.95,-15.75
211333,0.12,0.00,1.00,1.53,-2.62,-22.16
211349,0.14,0.04,1.00,2.50,-2.69,-33.26
211365,0.14,0.06,1.00,2.62,-2.87,-36.80
211381,0.12,0.09,1.00,1.71,-2.50,-37.60
211397,0.09,0.09,1.00,1.89,-2.50,-31.98
211413,0.08,0.05,1.00,2.20,-2.62,-29.11
211429,0.11,0.02,1.00,0.37,-3.05,-27.89
211445,0.12,0.05,1.00,1.65,-3.05,-31.01
211461,0.14,0.07,0.99,2.14,-2.38,-33.75
211477,0.16,0.08,1.00,0.98,-1.89,-34.42
211493,0.13,0.07,1.00,0.06,-2.93,-30.09
211509,0.08,0.05,1.00,-0.12,-3.17,-27.83
211525,0.04,0.06,1.01,0.61,-2.38,-28.08
211541,0.05,0.11,1.00,2.20,-3.54,-30.70
211557,0.06,0.12,1.00,1.53,-2.81,-30.82
211573,0.06,0.14,1.00,2.38,-3.60,-27.10
211589,0.02,0.12,1.01,1.89,-2.56,-23.56
211605,0.00,0.13,1.00,3.36,-2.99,-21.61
211621,-0.05,0.14,1.00,2.26,-2.14,-19.53
211637,-0.08,0.16,1.00,2.20,-2.08,-18.43
211653,-0.07,0.16,1.00,2.32,-2.32,-18.31
211669,-0.07,0.16,1.00,2.50,-1.77,-18.55
211685,-0.06,0.18,1.00,1.10,-1.89,-17.58
211701,-0.08,0.19,1.00,0.67,-2.32,-16.85
211717,-0.10,0.19,1.00,0.73,-2.44,-13.85
211733,-0.12,0.20,1.00,1.34,-2.69,-9.64
211749,-0.13,0.22,1.00,1.34,-2.87,-7.45
211765,-0.16,0.18,1.00,1.59,-2.38,0.98
211781,-0.17,0.14,1.00,2.50,-2.20,9.58
211797,-0.18,0.10,1.01,2.26,-1.95,11.05
211813,-0.18,0.07,1.00,0.37,-1.89,12.02
211829,-0.17,0.06,1.00,0.37,-2.26,9.83
211845,-0.16,0.07,1.00,1.22,-2.20,9.28
211861,-0.16,0.07,1.00,1.59,-2.01,11.72
211877,-0.16,0.05,1.00,-0.06,-1.89,16.17
211893,-0.15,0.02,1.00,-0.43,-1.53,17.27
211909,-0.16,-0.01,1.01,0.92,-1.28,20.32
211925,-0.15,-0.01,1.00,1.22,-1.40,22.22
211941,-0.15,-0.00,1.00,0.98,-1.16,26.37
211957,-0.15,0.01,1.00,2.62,-0.61,28.26
211973,-0.16,0.01,1.00,3.23,-0.73,29.30
211989,-0.15,-0.02,1.01,2.75,-0.79,33.20
212005,-0.12,-0.02,1.00,4.58,-2.14,34.18
212021,-0.11,-0.03,1.00,3.48,-2.26,34.12
212037,-0.09,-0.04,1.01,0.06,-0.37,36.38
212053,-0.09,-0.07,1.00,0.06,-1.22,39.86
212069,-0.07,-0.10,1.00,0.37,-1.34,41.50
212085,-0.07,-0.16,1.00,1.22,-0.98,46.51
212101,-0.09,-0.19,1.00,1.71,-1.10,46.75
212117,-0.09,-0.19,1.01,1.83,-0.67,44.98
212133,-0.09,-0.17,1.00,0.55,-0.92,40.16
212149,-0.08,-0.15,1.00,2.32,-0.06,38.94
212165,-0.08,-0.17,1.01,2.56,-1.16,40.16
212181,-0.03,-0.21,1.01,2.14,-0.79,41.99
212197,-0.03,-0.23,1.01,0.79,-1.65,40.22
212213,-0.00,-0.23,1.00,0.98,-1.71,38.15
212229,0.00,-0.23,1.01,0.24,-1.71,33.51
212245,0.02,-0.22,1.00,3.36,-1.59,28.02
212261,0.05,-0.22,1.01,1.40,-1.89,26.06
212277,0.08,-0.25,1.01,1.65,-1.04,23.68
212293,0.11,-0.26,1.01,2.08,-1.34,17.76
212309,0.14,-0.25,1.02,1.71,-1.59,14.95
212325,0.18,-0.24,1.01,1.65,-2.32,7.87
212341,0.16,-0.21,1.01,-0.55,-2.14,1.46
212357,0.16,-0.18,1.00,1.65,-1.89,-2.44
212373,0.16,-0.12,1.00,4.64,-1.16,-10.19
212389,0.20,-0.08,1.01,2.62,-1.71,-10.50
212405,0.19,-0.08,1.00,0.79,-1.59,-9.70
212421,0.18,-0.05,1.00,0.12,-1.77,-9.70
212437,0.18,-0.06,1.01,2.87,-1.04,-11.11
212453,0.18,-0.06,1.00,2.99,-1.34,-12.57
212469,0.19,-0.05,1.00,3.11,-1.77,-19.23
212485,0.21,-0.02,1.00,1.89,-1.22,-30.03
212501,0.21,0.02,1.00,-1.65,-1.65,-34.18
212517,0.19,0.07,1.00,-1.53,-3.17,-33.94
212533,0.15,0.10,1.00,3.78,-3.05,-31.07
212549,0.12,0.08,1.00,2.32,-2.69,-31.01
212565,0.09,0.08,1.01,-0.55,-2.14,-26.49
212581,0.08,0.13,1.00,0.67,-2.56,-25.45
212597,0.09,0.13,1.00,1.77,-2.87,-26.12
212613,0.12,0.17,1.00,3.23,-2.87,-26.67
212629,0.15,0.16,1.00,4.52,-1.59,-26.73
212645,0.16,0.15,1.00,5.13,-1.77,-25.82
212661,0.11,0.13,1.00,1.22,-2.99,-21.12
212677,0.00,0.15,1.01,-0.06,-2.56,-17.64
212693,-0.01,0.19,1.00,0.49,-3.36,-15.81
212709,-0.00,0.22,1.00,-0.43,-2.38,-13.73
212725,0.04,0.22,1.00,0.55,-2.87,-10.99
212741,0.05,0.21,1.00,-0.18,-2.44,-10.13
212757,0.05,0.19,0.99,2.38,-2.75,-7.57
212773,-0.04,0.19,1.00,3.36,-2.62,-1.28
212789,-0.07,0.19,1.00,4.46,-2.26,1.10
212805,-0.17,0.14,1.00,5.00,-2.50,1.10
212821,-0.18,0.11,1.00,1.71,-2.26,-3.72
212837,-0.16,0.10,1.00,1.53,-1.89,-8.30
212853,-0.12,0.14,1.00,1.59,-2.20,-17.33
212869,-0.10,0.16,1.00,2.99,-2.20,-20.81
212885,-0.08,0.18,1.01,2.62,-2.26,-19.23
212901,-0.12,0.16,1.00,0.98,-2.81,-12.39
212917,-0.12,0.14,1.00,3.42,-2.62,-6.53
212933,-0.12,0.10,1.01,3.48,-2.38,-4.46
212949,-0.12,0.09,0.99,2.01,-2.20,0.73
212965,-0.11,0.10,1.00,2.14,-1.77,3.42
212981,-0.09,0.09,1.00,1.34,-1.77,8.30
212997,-0.06,0.08,1.00,0.24,-2.14,12.63
213013,-0.05,0.07,1.00,-0.31,-1.95,14.89
213029,-0.06,0.03,1.01,-0.61,-1.71,21.61
213045,-0.10,0.01,1.00,0.85,-1.16,29.05
213061,-0.12,-0.00,1.00,2.62,-1.04,30.64
213077,-0.14,-0.01,1.01,4.09,-0.92,30.94
213093,-0.14,-0.00,1.00,2.81,-0.98,30.21
213109,-0.14,-0.00,1.00,2.56,-0.98,30.33
213125,-0.15,-0.02,1.00,0.61,-0.61,32.59
213141,-0.16,-0.03,1.00,0.00,-1.10,31.62
213157,-0.15,-0.03,1.01,1.04,-1.83,30.88
213173,-0.16,-0.00,1.00,1.53,-1.53,31.86
213189,-0.15,0.01,1.00,0.18,-1.10,36.87
213205,-0.14,-0.00,1.00,-1.22,-0.79,40.47
213221,-0.13,-0.05,1.00,1.53,-0.67,44.13
213237,-0.11,-0.11,1.00,2.56,-0.85,45.90
213253,-0.11,-0.14,1.00,0.06,-0.92,46.81
213269,-0.10,-0.19,1.01,-0.12,-1.65,45.65
213285,-0.10,-0.22,1.01,1.34,-1.40,42.60
213301,-0.10,-0.22,0.99,2.32,-1.89,39.73
213317,-0.07,-0.24,1.01,-0.37,-1.04,32.35
213333,-0.05,-0.25,1.01,-0.61,-1.59,28.93
213349,-0.04,-0.25,1.00,0.06,-0.49,28.20
213365,-0.01,-0.25,1.00,-1.04,-1.46,24.41
213381,0.03,-0.23,1.01,1.53,-2.08,19.96
213397,0.05,-0.22,1.01,4.21,-2.26,18.25
213413,0.05,-0.23,1.00,0.49,-1.46,16.85
213429,0.05,-0.24,1.01,0.98,-1.16,13.79
213445,0.06,-0.24,1.01,1.40,-1.65,11.41
213461,0.07,-0.21,1.00,2.75,-2.01,4.64
213477,0.06,-0.16,1.01,1.46,-1.16,-1.22
213493,0.05,-0.15,1.00,2.26,-1.16,-2.75
213509,0.08,-0.11,1.01,3.23,-1.28,-3.91
213525,0.09,-0.09,1.00,1.10,-1.95,-2.32
213541,0.08,-0.11,1.00,1.71,-2.38,-2.01
213557,0.09,-0.11,1.01,1.53,-2.08,-3.17
213573,0.07,-0.11,1.00,0.49,-2.44,-4.09
213589,0.08,-0.09,1.01,2.38,-2.20,-5.07
213605,0.09,-0.08,1.00,3.85,-1.46,-8.85
213621,0.12,-0.03,0.99,-1.10,-1.77,-16.17
213637,0.13,-0.02,1.00,-0.73,-1.59,-16.05
213653,0.15,0.03,1.00,3.97,-1.46,-16.97
213669,0.16,0.04,1.01,4.58,-1.71,-16.60
213685,0.16,0.01,1.00,4.46,-1.89,-15.26
213701,0.16,-0.03,1.01,2.69,-2.01,-15.50
213717,0.17,-0.04,1.01,-0.37,-1.95,-20.57
213733,0.17,-0.04,1.00,0.06,-2.08,-24.05
213749,0.17,-0.01,1.01,1.28,-2.69,-28.99
213765,0.14,0.03,1.00,-0.43,-2.75,-32.53
213781,0.12,0.04,1.00,0.24,-2.26,-33.57
213797,0.10,0.06,1.00,4.15,-2.38,-32.71
213813,0.10,0.09,1.00,3.48,-3.72,-31.86
213829,0.11,0.09,0.99,0.79,-3.23,-30.82
213845,0.12,0.11,1.00,0.85,-2.01,-28.50
213861,0.13,0.13,0.97,2.08,-1.83,-27.59
213877,0.13,0.17,1.00,2.26,-2.08,-26.67
213893,0.09,0.20,1.00,1.77,-2.75,-23.68
213909,0.06,0.23,1.00,0.43,-3.17,-17.64
213925,-0.01,0.24,1.00,-0.12,-2.50,-14.47
213941,-0.01,0.26,1.00,1.89,-2.56,-8.00
213957,0.00,0.24,1.00,2.20,-2.56,-2.32
213973,0.03,0.21,1.00,3.30,-2.32,0.31
213989,0.06,0.15,0.99,2.69,-2.08,3.66
214005,0.07,0.14,1.00,3.42,-1.89,3.66
214021,0.00,0.13,1.00,0.49,-2.26,4.03
214037,-0.13,0.15,1.01,1.71,-1.71,5.43
214053,-0.15,0.14,1.01,1.28,-1.71,4.70
214069,-0.10,0.14,1.01,1.28,-1.34,-0.55
214085,-0.06,0.15,1.00,0.31,-2.14,-3.85
214101,-0.04,0.15,1.00,1.16,-2.44,-3.72
214117,-0.01,0.16,1.00,3.30,-1.89,-2.50
214133,-0.06,0.13,1.00,3.72,-2.01,-1.28
214149,-0.07,0.13,1.00,2.44,-2.50,0.61
214165,-0.13,0.11,1.01,2.50,-2.56,4.58
214181,-0.20,0.09,1.00,3.23,-2.44,6.10
214197,-0.19,0.07,1.00,2.26,-2.14,5.86
214213,-0.16,0.06,1.00,2.01,-1.83,3.60
214229,-0.12,0.09,1.00,1.71,-2.14,1.95
214245,-0.11,0.11,1.00,2.44,-2.32,2.81
214261,-0.12,0.12,1.00,0.98,-1.77,10.01
214277,-0.14,0.11,1.01,-1.28,-1.10,20.02
214293,-0.16,0.10,1.00,-0.79,-1.28,24.17
214309,-0.15,0.06,1.00,0.18,-1.53,31.31
214325,-0.16,-0.01,1.00,-0.12,-1.16,37.35
214341,-0.16,-0.03,1.00,0.85,-1.04,38.33
214357,-0.15,-0.05,1.00,3.48,-0.61,36.25
214373,-0.15,-0.06,1.01,3.91,-0.61,33.26
214389,-0.14,-0.05,1.00,3.42,-0.79,32.29
214405,-0.14,-0.04,1.00,3.91,-1.10,32.35
214421,-0.13,-0.06,1.01,4.27,-1.40,34.24
214437,-0.11,-0.08,1.01,1.95,-1.65,35.46
214453,-0.11,-0.11,1.01,-2.69,-1.46,37.29
214469,-0.09,-0.14,1.00,-2.08,-1.10,36.25
214485,-0.08,-0.15,1.00,-0.98,-0.43,34.97
214501,-0.08,-0.17,1.00,0.73,-0.18,32.29
214517,-0.07,-0.16,1.01,3.48,-1.22,29.11
214533,-0.06,-0.16,1.00,3.17,-0.67,28.14
214549,-0.06,-0.17,1.01,2.38,0.31,26.92
214565,-0.06,-0.18,1.00,3.66,-1.28,23.93
214581,-0.06,-0.17,1.00,2.93,-0.98,21.91
214597,-0.05,-0.14,1.01,2.56,-1.71,17.33
214613,-0.04,-0.10,1.00,2.14,-2.26,14.40
214629,-0.00,-0.10,1.00,0.85,-2.44,13.37
214645,0.01,-0.11,1.01,1.89,-1.95,11.41
214661,0.01,-0.12,1.01,2.87,-2.08,6.47
214677,0.01,-0.14,1.00,0.49,-1.71,4.64
214693,0.04,-0.16,1.00,0.06,-2.20,1.95
214709,0.09,-0.11,1.01,2.38,-0.98,0.61
214725,0.10,-0.13,1.03,0.55,-1.40,1.46
214741,0.12,-0.13,1.00,-0.61,-2.38,-0.67
214757,0.11,-0.15,1.00,-2.01,-2.20,-1.53
214773,0.12,-0.14,1.00,1.04,-2.32,-3.97
214789,0.13,-0.09,1.01,4.58,-1.65,-10.56
214805,0.15,-0.06,1.00,1.53,-1.28,-10.19
214821,0.15,-0.07,1.01,-0.49,-1.71,-8.12
214837,0.16,-0.08,1.00,-0.12,-1.65,-6.47
214853,0.16,-0.07,1.00,1.83,-1.40,-8.48
214869,0.15,-0.07,1.00,3.23,-1.53,-9.52
214885,0.12,-0.06,1.01,2.99,-1.95,-12.76
214901,0.13,-0.03,1.00,4.33,-2.20,-18.13
214917,0.14,-0.02,1.00,5.25,-2.26,-20.81
214933,0.15,-0.03,1.00,2.44,-1.83,-20.94
214949,0.15,-0.05,1.00,-1.71,-1.71,-23.19
214965,0.15,-0.02,1.00,-0.37,-1.77,-25.82
214981,0.13,0.01,1.01,0.00,-3.30,-27.47
214997,0.11,0.00,1.00,0.79,-3.05,-26.00
215013,0.10,-0.00,1.00,-0.49,-2.81,-27.22
215029,0.09,0.03,1.00,-0.18,-2.38,-30.64
215045,0.10,0.05,1.00,2.26,-2.50,-32.47
215061,0.12,0.07,1.00,3.60,-2.50,-31.80
215077,0.16,0.04,1.01,3.17,-3.91,-29.17
215093,0.18,0.04,1.00,1.10,-3.54,-27.89
215109,0.17,0.03,1.00,0.24,-2.20,-27.22
215125,0.09,0.06,1.01,1.83,-2.26,-26.79
215141,0.04,0.08,1.00,1.22,-2.62,-24.90
215157,-0.02,0.13,1.00,2.14,-2.14,-22.95
215173,0.02,0.18,1.00,0.61,-2.87,-19.78
215189,0.05,0.18,1.00,0.67,-2.01,-17.58
215205,0.07,0.22,1.00,1.95,-2.99,-14.28
215221,0.09,0.22,1.00,2.20,-2.81,-10.56
215237,0.08,0.23,1.00,3.85,-2.38,-7.45
215253,0.02,0.21,1.00,3.78,-1.46,0.37
215269,-0.00,0.19,1.00,1.83,-2.32,10.07
215285,-0.01,0.17,1.00,2.26,-1.89,13.67
215301,-0.05,0.16,1.00,3.60,-1.16,15.38
215317,-0.14,0.18,1.00,0.37,-1.89,13.92
215333,-0.18,0.18,1.00,-0.18,-2.69,13.92
215349,-0.23,0.17,1.00,1.10,-1.83,11.90
215365,-0.20,0.12,1.00,2.62,-1.65,6.35
215381,-0.17,0.11,1.00,1.95,-1.95,2.38
215397,-0.11,0.13,1.00,2.08,-2.62,-3.30
215413,-0.10,0.14,1.00,3.30,-2.44,-3.36
215429,-0.10,0.14,1.00,3.36,-2.38,-1.34
215445,-0.15,0.12,1.00,1.71,-2.14,4.09
215461,-0.15,0.11,1.00,1.34,-2.01,7.87
215477,-0.14,0.12,1.00,1.10,-1.95,9.34
215493,-0.14,0.11,1.00,1.34,-1.53,13.31
215509,-0.12,0.10,1.00,0.79,-0.98,17.76
215525,-0.10,0.08,1.01,0.49,-1.10,20.26
215541,-0.10,0.05,1.00,0.06,-1.28,25.39
215557,-0.12,0.04,1.00,-0.61,-1.59,29.97
215573,-0.13,0.03,1.00,-0.85,-1.65,31.92
215589,-0.13,-0.01,1.00,0.67,-1.28,33.57
215605,-0.14,-0.01,1.01,5.00,-0.73,31.92
215621,-0.13,-0.01,1.00,4.64,-0.98,31.49
215637,-0.13,0.00,1.00,4.09,-1.04,33.33
215653,-0.13,0.00,1.01,5.07,-1.59,35.28
215669,-0.11,-0.00,1.00,3.42,-1.53,36.99
215685,-0.10,-0.05,1.00,-1.71,-0.67,41.26
215701,-0.10,-0.12,1.00,-2.08,-1.04,43.52
215717,-0.11,-0.14,1.00,-1.34,-0.24,42.91
215733,-0.11,-0.18,1.01,-0.18,-0.43,40.71
215749,-0.10,-0.14,1.00,3.66,-0.61,36.01
215765,-0.10,-0.15,1.01,2.75,-0.79,34.00
215781,-0.08,-0.16,1.00,2.44,-0.79,33.51
215797,-0.09,-0.19,1.01,2.26,-0.37,32.35
215813,-0.07,-0.19,1.01,2.93,-1.10,31.25
215829,-0.08,-0.22,1.01,0.37,-1.40,29.11
215845,-0.09,-0.24,1.01,1.40,-1.65,25.09
215861,-0.06,-0.24,1.01,0.92,-2.08,21.73
215877,-0.03,-0.22,1.02,0.73,-1.95,10.56
215893,-0.01,-0.17,1.00,2.56,-2.08,1.89
215909,0.02,-0.16,1.01,2.08,-2.44,-0.24
215925,0.03,-0.17,1.01,0.92,-1.22,-0.12
215941,0.05,-0.16,1.01,2.81,-1.40,-2.75
215957,0.03,-0.16,1.00,2.14,-2.14,-5.00
215973,0.04,-0.17,1.01,0.00,-2.32,-8.79
215989,0.06,-0.18,1.01,1.34,-2.44,-14.71
216005,0.09,-0.15,1.00,2.01,-2.32,-18.19
216021,0.13,-0.10,1.00,4.94,-2.20,-21.48
216037,0.16,-0.09,1.01,-3.97,-2.44,-19.65
216053,0.17,-0.08,1.00,1.53,-2.56,-18.92
216069,0.16,-0.06,1.01,-2.14,-1.83,-21.61
216085,0.16,-0.05,1.01,1.83,-1.95,-20.14
216101,0.14,-0.04,1.00,2.56,-1.77,-19.23
216117,0.14,-0.03,1.00,3.05,-1.71,-17.88
216133,0.15,-0.01,1.00,2.38,-1.77,-18.80
216149,0.15,-0.01,1.01,2.01,-2.20,-19.59
216165,0.17,0.01,1.00,3.11,-2.01,-22.34
216181,0.16,0.02,0.99,2.20,-1.83,-23.99
216197,0.15,0.03,1.00,-1.34,-2.01,-25.63
216213,0.13,0.06,1.00,0.73,-2.26,-24.60
216229,0.13,0.07,1.00,1.95,-2.01,-24.66
216245,0.11,0.06,1.00,3.48,-2.26,-22.83
216261,0.09,0.04,1.00,0.67,-2.44,-22.77
216277,0.08,0.04,1.00,-0.92,-2.50,-23.01
216293,0.09,0.08,1.00,2.38,-2.56,-23.62
216309,0.11,0.12,1.00,1.59,-2.75,-25.21
216325,0.11,0.13,1.00,2.99,-2.50,-23.80
216341,0.09,0.14,1.00,5.43,-2.08,-21.12
216357,0.09,0.11,1.00,2.81,-3.17,-17.09
216373,0.08,0.10,1.00,-0.73,-3.42,-15.20
216389,0.05,0.12,1.00,-0.79,-2.38,-14.47
216405,0.05,0.14,1.00,1.10,-2.20,-16.66
216421,0.05,0.15,1.00,0.79,-2.08,-15.93
216437,0.03,0.15,1.00,1.59,-2.08,-12.27
216453,0.01,0.10,1.00,2.50,-1.71,-7.81
216469,0.02,0.08,1.01,2.50,-2.14,-6.53
216485,0.06,0.06,1.00,1.77,-2.81,-7.51
216501,0.06,0.07,1.00,0.55,-2.81,-6.96
216517,0.08,0.07,1.00,0.31,-2.14,-6.29
216533,0.06,0.08,1.00,0.85,-2.50,-5.62
216549,0.02,0.16,1.00,1.34,-2.62,-5.07
216565,-0.00,0.19,1.00,1.53,-2.14,-3.17
216581,-0.04,0.22,1.00,2.62,-2.01,4.03
216597,-0.08,0.21,0.99,1.89,-2.26,11.35
216613,-0.10,0.20,0.99,1.10,-1.04,14.34
216629,-0.16,0.15,1.00,1.65,-1.59,17.58
216645,-0.17,0.11,1.00,1.40,-1.65,15.69
216661,-0.17,0.10,1.00,0.73,-1.53,13.37
216677,-0.15,0.11,1.00,1.04,-2.26,8.42
216693,-0.15,0.10,1.00,2.26,-2.32,6.65
216709,-0.15,0.09,1.00,2.26,-2.26,6.96
216725,-0.14,0.07,1.00,0.55,-2.01,9.40
216741,-0.11,0.03,1.00,1.28,-1.77,10.07
216757,-0.10,0.01,1.00,1.28,-1.40,10.01
216773,-0.10,0.01,1.00,-0.12,-1.59,10.38
216789,-0.12,0.04,1.00,-0.12,-1.65,12.63
216805,-0.14,0.04,1.01,-0.37,-1.65,14.53
216821,-0.14,0.05,1.01,1.77,-1.22,18.62
216837,-0.12,0.05,1.00,4.39,-1.40,22.16
216853,-0.12,0.04,1.00,4.03,-1.65,23.50
216869,-0.12,0.04,1.00,3.23,-0.85,26.79
216885,-0.14,0.04,1.00,3.42,-1.65,29.42
216901,-0.13,0.03,1.00,3.85,-1.83,30.64
216917,-0.14,0.02,1.00,0.24,-1.59,34.97
216933,-0.14,-0.02,1.00,-2.44,-1.10,38.09
216949,-0.14,-0.03,1.00,-2.08,-0.73,39.37
216965,-0.14,-0.06,1.00,-1.16,-0.24,40.59
216981,-0.13,-0.11,1.01,3.42,-0.31,41.38
216997,-0.13,-0.14,1.01,3.17,-1.22,41.08
217013,-0.12,-0.20,1.01,3.66,-0.79,38.88
217029,-0.12,-0.21,1.01,3.66,-1.28,34.36
217045,-0.11,-0.17,1.00,2.56,-1.34,31.74
217061,-0.07,-0.16,1.00,1.59,-1.65,27.65
217077,-0.09,-0.17,1.00,2.20,-0.79,23.07
217093,-0.07,-0.18,1.01,0.18,-1.65,21.36
217109,-0.02,-0.19,1.00,1.16,-1.77,20.08
217125,-0.03,-0.20,1.00,2.69,-1.40,19.23
217141,0.04,-0.22,1.02,1.10,-1.53,17.76
217157,0.05,-0.24,1.01,0.61,-0.92,13.61
217173,0.06,-0.24,1.01,0.67,-1.22,6.71
217189,0.06,-0.21,1.01,0.98,-2.26,3.54
217205,0.08,-0.19,1.01,2.01,-2.20,1.46
217221,0.08,-0.19,1.01,0.24,-2.14,-0.61
217237,0.09,-0.18,1.01,2.32,-2.01,-5.43
217253,0.13,-0.14,1.00,1.22,-2.69,-8.61
217269,0.12,-0.13,1.00,1.04,-2.69,-8.06
217285,0.13,-0.10,1.01,0.06,-2.14,-7.39
217301,0.13,-0.11,1.00,-1.10,-1.53,-7.32
217317,0.16,-0.10,1.00,1.77,-1.10,-10.07
217333,0.16,-0.06,1.01,1.04,-1.89,-13.67
217349,0.16,-0.03,1.00,4.64,-1.65,-14.04
217365,0.17,-0.02,1.00,3.66,-1.71,-14.22
217381,0.18,-0.01,1.01,3.05,-1.95,-16.72
217397,0.20,0.02,1.00,2.69,-2.26,-20.94
217413,0.19,0.03,1.00,3.23,-1.89,-21.73
217429,0.19,0.03,1.00,1.28,-1.83,-20.57
217445,0.17,-0.00,1.01,0.61,-1.65,-20.63
217461,0.17,0.00,1.00,2.75,-1.65,-21.48
217477,0.14,0.01,1.00,2.08,-2.01,-24.23
217493,0.09,0.03,1.01,-0.43,-2.99,-25.21
217509,0.09,0.04,1.00,-0.06,-2.93,-26.43
217525,0.08,0.07,1.00,1.71,-2.08,-29.17
217541,0.11,0.09,1.00,4.03,-1.65,-29.79
217557,0.12,0.09,1.00,5.68,-2.44,-29.11
217573,0.15,0.09,1.00,3.48,-3.60,-27.40
217589,0.10,0.10,1.00,-0.24,-2.62,-23.32
217605,0.05,0.11,1.00,-0.06,-1.34,-22.22
217621,0.00,0.17,1.01,-0.92,-2.14,-20.69
217637,0.03,0.17,1.00,1.34,-2.20,-18.19
217653,0.03,0.18,1.00,2.87,-2.01,-17.58
217669,0.09,0.18,1.00,2.81,-3.36,-15.56
217685,0.07,0.18,1.00,1.59,-2.38,-10.80
217701,0.06,0.20,1.00,0.24,-2.93,-8.12
217717,0.03,0.22,1.00,0.37,-2.56,-3.48
217733,-0.03,0.20,0.99,2.93,-2.81,2.50
217749,-0.04,0.20,1.00,2.69,-1.46,5.92
217765,-0.09,0.17,1.00,2.99,-1.83,11.54
217781,-0.14,0.16,1.00,2.32,-1.65,12.76
217797,-0.16,0.16,1.00,1.46,-2.01,11.35
217813,-0.19,0.15,1.00,1.65,-1.46,8.48
217829,-0.13,0.16,1.00,2.01,-2.01,5.98
217845,-0.12,0.17,1.00,1.34,-2.20,5.68
217861,-0.09,0.19,1.00,1.59,-1.83,7.93
217877,-0.07,0.15,1.00,2.62,-2.44,14.40
217893,-0.06,0.15,1.00,2.69,-2.08,18.25
217909,-0.09,0.10,1.00,0.98,-1.95,25.82
217925,-0.11,0.03,1.00,0.06,-1.28,31.49
217941,-0.14,0.00,1.00,0.49,-0.92,31.98
217957,-0.16,-0.03,1.00,-0.24,-0.92,28.93
217973,-0.16,-0.02,1.01,0.24,-1.65,22.16
217989,-0.16,-0.01,1.01,0.06,-2.01,18.98
218005,-0.16,0.04,1.00,3.30,-1.89,16.05
218021,-0.16,0.08,1.00,3.97,-0.98,19.17
218037,-0.16,0.09,1.00,3.66,-0.67,21.67
218053,-0.16,0.09,1.00,4.33,-0.98,27.65
218069,-0.15,0.06,1.01,4.03,-1.59,33.63
218085,-0.16,0.04,1.00,1.71,-1.65,36.80
218101,-0.16,-0.04,1.00,-3.05,-1.04,40.28
218117,-0.17,-0.05,1.00,-2.87,-0.55,40.10
218133,-0.15,-0.07,1.00,-1.10,-0.43,39.25
218149,-0.14,-0.09,1.01,2.99,-0.92,38.33
218165,-0.13,-0.10,1.00,2.93,-0.61,39.86
218181,-0.14,-0.15,1.01,2.20,-0.49,41.56
218197,-0.14,-0.22,1.01,2.38,-0.49,41.38
218213,-0.12,-0.24,1.01,0.37,-1.34,35.10
218229,-0.11,-0.27,1.01,-0.06,-1.40,31.92
218245,-0.09,-0.24,1.00,1.77,-1.04,24.54
218261,-0.07,-0.25,1.00,0.24,-1.53,21.97
218277,-0.03,-0.25,1.00,0.24,-1.16,16.48
218293,-0.01,-0.24,1.00,0.92,-1.71,12.33
218309,0.04,-0.24,1.01,2.56,-2.01,10.31
218325,0.05,-0.25,1.01,1.65,-1.10,7.57
218341,0.06,-0.25,1.01,2.20,-1.28,3.91
218357,0.07,-0.25,1.00,-0.85,-2.08,1.46
218373,0.08,-0.23,1.01,0.55,-2.69,-3.85
218389,0.10,-0.18,1.01,3.36,-2.56,-9.22
218405,0.12,-0.15,1.00,2.50,-2.50,-12.39
218421,0.12,-0.10,1.00,4.52,-2.26,-14.95
218437,0.12,-0.09,1.00,2.50,-2.08,-12.51
218453,0.12,-0.08,1.00,-0.06,-2.14,-11.23
218469,0.13,-0.09,1.00,-3.78,-2.08,-10.86
218485,0.15,-0.06,1.01,3.11,-1.46,-16.72
218501,0.14,-0.05,1.00,3.42,-1.71,-18.68
218517,0.16,0.00,1.00,3.54,-2.38,-20.81
218533,0.17,0.02,1.00,3.48,-2.32,-21.30
218549,0.17,0.04,1.00,2.50,-2.44,-21.91
218565,0.17,0.06,1.00,1.16,-2.50,-23.32
218581,0.18,0.05,1.00,1.77,-1.34,-24.17
218597,0.18,0.06,1.00,2.26,-1.34,-25.27
218613,0.14,0.05,1.00,2.14,-1.77,-23.19
218629,0.12,0.05,1.01,-2.20,-2.99,-24.29
218645,0.10,0.05,1.00,-1.16,-2.32,-24.90
218661,0.08,0.05,1.00,0.85,-2.08,-26.67
218677,0.08,0.07,1.00,2.14,-1.53,-27.53
218693,0.09,0.08,1.00,1.89,-1.89,-28.44
218709,0.11,0.10,1.00,4.03,-2.01,-28.69
218725,0.11,0.09,1.00,2.01,-3.30,-26.25
218741,0.08,0.10,1.00,0.79,-3.05,-25.88
218757,0.00,0.12,1.00,-0.24,-2.50,-26.67
218773,-0.02,0.15,1.00,-1.95,-1.83,-28.56
218789,-0.02,0.16,1.01,-0.43,-2.56,-29.11
218805,0.03,0.14,1.00,-0.85,-2.14,-28.20
218821,0.07,0.13,1.00,1.34,-1.83,-26.55
218837,0.09,0.13,1.00,1.59,-2.26,-25.82
218853,0.13,0.12,1.00,0.55,-2.44,-22.58
218869,0.11,0.10,1.00,2.56,-2.93,-18.43
218885,0.09,0.09,1.00,2.56,-3.30,-16.24
218901,0.01,0.10,1.01,0.67,-2.62,-12.33
218917,-0.01,0.12,1.00,2.14,-3.17,-9.28
218933,-0.03,0.14,1.00,2.14,-2.62,-7.93
218949,-0.01,0.18,1.00,4.58,-2.20,-3.60
218965,-0.09,0.20,1.01,2.62,-2.01,3.30
218981,-0.14,0.19,1.00,1.53,-2.01,7.26
218997,-0.21,0.17,1.00,2.62,-1.77,13.55
219013,-0.20,0.12,1.00,2.81,-1.71,13.12
219029,-0.18,0.11,1.00,1.59,-1.83,11.17
219045,-0.14,0.11,1.00,0.92,-2.01,8.18
219061,-0.11,0.12,1.00,2.44,-1.83,8.42
219077,-0.09,0.14,1.00,1.89,-2.20,9.95
219093,-0.10,0.13,1.00,1.28,-2.08,15.32
219109,-0.11,0.08,1.00,2.38,-1.65,23.32
219125,-0.13,0.05,1.00,2.20,-1.04,28.14
219141,-0.12,-0.00,1.00,1.53,-1.10,32.71
219157,-0.12,-0.01,1.00,-0.55,-1.53,30.03
219173,-0.14,-0.00,1.01,1.16,-1.16,29.91
219189,-0.14,0.00,1.00,3.91,-1.46,31.49
219205,-0.14,0.00,1.00,3.72,-1.53,32.59
219221,-0.15,-0.00,1.00,3.36,-1.40,33.02
219237,-0.16,-0.02,1.00,2.08,-1.16,34.42
219253,-0.15,-0.03,1.00,1.71,-1.53,33.94
219269,-0.13,-0.04,1.01,1.22,-1.34,33.33
219285,-0.12,-0.09,1.00,0.00,-0.98,35.71
219301,-0.13,-0.09,1.00,0.24,-0.67,34.79
219317,-0.14,-0.08,1.00,0.43,-0.49,33.57
219333,-0.12,-0.08,1.00,-0.79,-0.24,32.04
219349,-0.10,-0.10,1.01,0.79,-0.61,32.17
219365,-0.09,-0.12,1.01,4.21,-1.40,33.14
219381,-0.07,-0.13,1.00,4.21,-1.59,34.55
219397,-0.06,-0.16,1.01,3.17,-1.46,35.34
219413,-0.02,-0.17,1.01,2.87,-0.98,35.89
219429,-0.03,-0.19,1.01,0.73,-1.46,35.28
219445,-0.02,-0.19,1.00,1.95,-1.40,33.51
219461,-0.03,-0.20,1.01,2.32,-1.46,28.81
219477,-0.01,-0.20,1.01,0.24,-1.53,24.54
219493,0.00,-0.20,1.00,0.37,-1.28,21.85
219509,0.05,-0.18,1.01,3.42,-1.53,15.56
219525,0.05,-0.17,1.00,1.34,-1.77,11.72
219541,0.07,-0.16,1.01,0.31,-2.44,10.19
219557,0.09,-0.13,1.00,-0.12,-3.11,7.45
219573,0.08,-0.09,0.99,1.34,-2.62,5.62
219589,0.10,-0.12,1.00,1.22,-2.01,5.80
219605,0.10,-0.10,1.00,2.44,-1.59,4.15
219621,0.12,-0.13,1.00,0.31,-1.77,2.56
219637,0.13,-0.12,1.00,0.67,-1.59,-0.06
219653,0.15,-0.07,1.01,1.95,-1.46,-6.53
219669,0.16,-0.02,1.00,2.87,-1.95,-9.70
219685,0.16,-0.01,1.01,2.56,-1.95,-9.40
219701,0.17,-0.01,1.00,2.99,-1.95,-7.32
219717,0.17,-0.02,1.00,2.38,-1.83,-10.07
219733,0.16,-0.02,1.00,1.46,-2.01,-12.02
219749,0.14,-0.03,1.01,0.12,-2.56,-15.63
219765,0.14,-0.03,1.00,2.75,-1.95,-20.51
219781,0.14,-0.02,1.00,3.97,-1.65,-25.09
219797,0.14,-0.03,1.01,2.20,-1.40,-29.24
219813,0.12,-0.03,1.00,-0.73,-2.08,-31.49
219829,0.11,-0.01,1.00,-0.92,-2.50,-32.59
219845,0.09,0.00,1.01,0.61,-2.81,-32.84
219861,0.10,-0.00,1.00,3.30,-1.89,-33.45
219877,0.10,0.00,1.00,3.23,-2.44,-35.40
219893,0.11,0.07,1.00,3.97,-2.69,-38.27
219909,0.12,0.11,1.00,2.50,-3.30,-36.68
219925,0.11,0.13,1.00,1.34,-3.91,-36.07
219941,0.14,0.14,1.00,2.50,-1.83,-32.59
219957,0.13,0.13,1.00,1.95,-2.26,-26.86
219973,0.13,0.13,1.00,1.16,-2.93,-23.56
219989,0.13,0.12,0.99,2.01,-1.77,-18.55
220005,0.04,0.17,1.00,0.67,-2.81,-14.40