time,accel_x,accel_y,accel_z,gyro_x,gyro_y,gyro_z
170022,0.08,-0.14,1.00,0.79,-2.01,-11.66
170037,0.10,-0.12,1.00,0.98,-2.01,-12.33
170053,0.13,-0.10,1.01,2.20,-2.20,-12.88
170069,0.15,-0.09,1.00,0.73,-2.62,-11.47
170085,0.16,-0.08,1.00,-0.43,-2.62,-10.50
170101,0.13,-0.06,1.00,0.18,-1.77,-10.93
170117,0.12,-0.06,1.00,1.71,-1.65,-11.41
170133,0.13,-0.06,1.01,2.08,-2.26,-11.84
170149,0.17,-0.03,0.99,3.48,-1.83,-13.85
170165,0.19,0.03,1.00,2.56,-1.71,-16.42
170181,0.15,0.03,1.00,2.99,-1.89,-15.56
170197,0.11,0.06,1.01,2.14,-1.95,-12.63
170213,0.11,0.06,1.00,2.32,-2.14,-8.79
170229,0.11,0.07,1.00,2.14,-2.38,-8.18
170245,0.12,0.05,1.01,3.17,-2.20,-9.09
170261,0.14,0.03,1.00,1.22,-1.83,-11.54
170277,0.13,0.03,1.00,1.59,-2.01,-14.04
170293,0.12,0.04,1.02,1.46,-2.26,-21.36
170309,0.08,0.01,1.00,3.60,-2.56,-23.99
170325,0.09,0.03,1.00,3.66,-2.56,-25.45
170341,0.08,0.06,1.00,3.78,-2.81,-28.50
170357,0.08,0.08,1.00,-0.06,-2.69,-29.97
170373,0.07,0.09,1.00,-0.06,-2.75,-30.15
170389,0.09,0.12,1.00,0.79,-2.87,-30.70
170405,0.12,0.11,1.00,1.59,-2.62,-29.11
170421,0.12,0.12,1.00,1.53,-2.81,-27.47
170437,0.10,0.12,1.00,1.59,-3.30,-25.94
170453,0.09,0.11,1.00,1.22,-2.93,-26.86
170469,0.08,0.13,1.00,2.01,-2.69,-26.06
170485,0.09,0.15,1.00,0.37,-3.17,-22.89
170501,0.05,0.16,1.00,-0.49,-2.87,-19.23
170517,0.05,0.20,1.00,-0.37,-2.87,-17.33
170533,0.03,0.22,0.99,1.04,-2.69,-12.45
170549,-0.00,0.23,0.99,1.71,-1.59,-4.58
170565,-0.05,0.19,1.00,-0.06,-1.65,-0.49
170581,-0.05,0.12,1.00,1.89,-1.40,4.03
170597,-0.05,0.09,1.00,1.34,-1.16,2.32
170613,-0.02,0.06,1.00,1.28,-1.28,-0.06
170629,-0.04,0.08,1.00,1.65,-2.20,-4.46
170645,-0.08,0.09,1.00,1.22,-2.56,-5.62
170661,-0.11,0.11,1.00,3.17,-2.08,-4.58
170677,-0.10,0.09,1.00,2.81,-2.38,-1.40
170693,-0.09,0.07,1.00,3.05,-2.69,-0.24
170709,-0.07,0.05,1.00,1.53,-2.44,-0.06
170725,-0.10,0.02,1.01,1.59,-1.83,-0.61
170741,-0.11,0.03,1.01,1.71,-1.59,0.06
170757,-0.14,0.03,1.00,0.67,-1.59,2.38
170773,-0.15,0.02,1.00,0.12,-1.83,6.59
170789,-0.15,0.01,1.00,0.67,-1.83,8.24
170805,-0.14,-0.01,1.00,2.26,-1.77,8.12
170821,-0.14,-0.01,1.00,1.53,-2.26,6.41
170837,-0.13,0.01,1.00,1.77,-2.20,5.92
170853,-0.17,0.08,1.00,1.40,-1.95,6.96
170869,-0.17,0.13,1.00,1.71,-2.26,12.08
170885,-0.16,0.14,1.00,0.92,-2.32,16.60
170901,-0.15,0.12,1.00,2.20,-1.89,26.49
170917,-0.13,0.07,1.00,3.42,-1.22,35.34
170933,-0.13,0.05,1.00,3.05,-1.16,39.37
170949,-0.13,0.01,1.00,1.46,-0.85,44.19
170965,-0.13,-0.01,1.00,0.55,-0.79,46.63
170981,-0.13,-0.01,1.00,0.18,-0.85,48.28
170997,-0.13,-0.05,1.01,-0.49,-0.85,50.66
171013,-0.09,-0.08,1.00,3.17,-0.43,52.06
171029,-0.08,-0.12,1.01,2.75,-0.43,53.16
171045,-0.07,-0.17,1.01,1.65,-0.31,52.49
171061,-0.08,-0.19,1.00,0.55,-0.55,49.74
171077,-0.05,-0.22,1.01,1.28,-0.67,47.36
171093,-0.06,-0.24,1.01,3.17,-1.34,44.25
171109,-0.06,-0.27,1.00,0.00,-0.49,38.33
171125,-0.04,-0.28,1.01,0.49,-0.67,34.24
171141,-0.01,-0.28,1.00,2.08,-1.04,27.10
171157,-0.00,-0.25,1.01,4.27,-1.28,17.82
171173,-0.01,-0.22,1.00,2.87,-1.22,13.79
171189,-0.02,-0.21,1.02,1.22,-1.22,9.40
171205,0.02,-0.20,1.01,-0.31,-1.40,5.00
171221,0.04,-0.20,1.01,0.49,-1.95,2.81
171237,0.09,-0.21,1.01,0.61,-2.32,-0.24
171253,0.11,-0.20,1.00,3.42,-2.32,-4.70
171269,0.11,-0.19,1.01,1.59,-2.26,-7.14
171285,0.11,-0.15,1.01,0.92,-2.69,-9.83
171301,0.12,-0.12,1.00,-0.49,-1.53,-16.05
171317,0.13,-0.09,1.01,1.89,-1.53,-17.76
171333,0.17,-0.02,1.01,1.95,-2.56,-19.35
171349,0.19,0.01,1.00,3.54,-2.14,-16.78
171365,0.17,0.01,1.01,2.62,-1.95,-13.98
171381,0.16,0.00,1.01,2.01,-1.77,-9.28
171397,0.17,0.02,1.00,2.01,-2.14,-8.79
171413,0.18,0.02,1.00,3.23,-2.20,-8.73
171429,0.19,0.03,1.00,2.50,-2.56,-11.72
171445,0.18,0.03,1.00,3.60,-2.32,-15.38
171461,0.18,0.03,1.00,2.14,-2.08,-17.94
171477,0.15,0.02,1.00,1.28,-2.20,-20.45
171493,0.10,0.03,1.00,2.26,-2.26,-22.64
171509,0.11,0.04,1.00,3.54,-2.56,-24.41
171525,0.07,0.07,1.01,5.19,-2.75,-27.89
171541,0.07,0.05,1.00,0.73,-2.44,-30.33
171557,0.07,0.09,1.00,0.12,-2.56,-30.64
171573,0.08,0.15,1.00,1.16,-2.93,-31.01
171589,0.08,0.16,1.00,2.93,-2.56,-31.43
171605,0.09,0.16,1.00,1.28,-2.81,-31.62
171621,0.08,0.16,1.00,0.67,-2.81,-30.46
171637,0.06,0.18,1.00,2.50,-2.81,-25.94
171653,0.01,0.18,1.00,1.65,-3.36,-23.44
171669,-0.01,0.17,1.00,-0.43,-3.17,-19.65
171685,-0.00,0.14,1.01,-0.37,-3.11,-18.25
171701,0.03,0.16,1.00,1.04,-2.44,-15.32
171717,0.05,0.17,1.00,1.77,-2.08,-12.45
171733,-0.01,0.16,1.00,0.92,-1.89,-10.99
171749,-0.03,0.15,1.00,0.06,-1.89,-7.02
171765,-0.10,0.13,1.00,0.37,-1.89,-2.01
171781,-0.09,0.12,1.00,0.55,-1.53,0.49
171797,-0.06,0.10,1.00,0.55,-1.53,0.85
171813,-0.03,0.08,1.00,1.71,-2.32,-3.54
171829,-0.05,0.09,1.00,2.01,-2.14,-5.92
171845,-0.08,0.09,1.00,3.66,-2.08,-6.77
171861,-0.11,0.06,1.00,3.11,-2.32,-5.37
171877,-0.08,0.07,1.00,2.20,-2.50,-5.31
171893,-0.07,0.09,1.00,1.10,-2.26,-5.25
171909,-0.04,0.10,1.00,0.73,-1.83,-1.40
171925,-0.05,0.09,1.00,0.79,-1.77,1.59
171941,-0.07,0.06,1.00,0.49,-1.77,7.57
171957,-0.10,0.01,1.00,1.22,-1.89,14.59
171973,-0.12,-0.01,1.01,1.46,-1.83,17.09
171989,-0.13,-0.05,1.00,1.71,-1.59,16.78
172005,-0.11,-0.06,1.01,1.95,-1.83,9.95
172021,-0.09,-0.05,1.00,1.83,-1.89,6.77
172037,-0.09,-0.01,1.00,1.71,-1.95,4.33
172053,-0.09,0.03,1.00,0.67,-2.38,8.30
172069,-0.10,0.03,1.00,0.73,-2.38,11.78
172085,-0.13,0.03,1.01,3.05,-2.08,18.49
172101,-0.13,0.03,1.00,3.05,-1.71,23.44
172117,-0.12,0.03,1.00,2.50,-1.71,25.21
172133,-0.13,0.01,1.00,2.20,-1.22,28.81
172149,-0.15,0.03,1.00,2.56,-1.04,30.70
172165,-0.15,0.03,1.00,2.75,-1.28,31.92
172181,-0.14,0.01,1.00,1.40,-1.10,35.52
172197,-0.14,-0.01,1.00,-0.79,-1.04,39.79
172213,-0.13,-0.00,1.01,1.59,-0.98,42.18
172229,-0.10,-0.09,1.01,1.83,-1.10,46.88
172245,-0.09,-0.14,1.01,1.77,-0.67,48.52
172261,-0.10,-0.15,1.01,2.26,-0.06,47.49
172277,-0.13,-0.15,1.01,0.92,-0.85,43.76
172293,-0.14,-0.16,1.01,0.18,-0.31,42.36
172309,-0.13,-0.17,1.00,0.98,-0.85,41.20
172325,-0.08,-0.19,1.00,0.73,-0.98,39.00
172341,-0.02,-0.26,1.00,3.78,-0.61,36.80
172357,-0.00,-0.30,1.00,3.48,-1.28,34.42
172373,0.03,-0.31,1.01,1.89,-1.34,26.55
172389,0.06,-0.29,1.01,-0.55,-1.10,16.24
172405,0.07,-0.28,1.01,-2.20,-1.71,11.72
172421,0.12,-0.25,1.01,0.98,-1.95,4.88
172437,0.11,-0.25,1.00,-0.12,-2.01,-0.55
172453,0.13,-0.24,1.01,1.95,-2.08,-4.46
172469,0.18,-0.20,1.01,0.73,-2.44,-11.54
172485,0.21,-0.15,1.00,0.92,-1.53,-14.53
172501,0.22,-0.12,1.01,2.87,-1.59,-16.48
172517,0.22,-0.05,1.01,5.19,-1.77,-17.15
172533,0.18,-0.03,1.00,4.88,-1.71,-14.34
172549,0.19,-0.03,1.01,4.39,-1.59,-13.00
172565,0.20,-0.02,1.00,4.09,-1.95,-10.99
172581,0.22,-0.00,1.01,2.38,-2.50,-13.18
172597,0.22,0.00,1.00,2.62,-2.62,-15.69
172613,0.21,0.05,1.00,2.26,-2.62,-24.05
172629,0.20,0.10,1.00,3.91,-2.62,-29.54
172645,0.17,0.17,1.00,3.85,-2.69,-30.27
172661,0.10,0.23,1.00,2.50,-2.81,-28.20
172677,0.07,0.22,1.00,-1.59,-2.14,-21.18
172693,0.07,0.14,1.00,-1.77,-2.81,-16.54
172709,0.05,0.14,1.00,0.00,-2.56,-17.70
172725,0.07,0.15,1.00,2.01,-2.38,-22.95
172741,0.09,0.16,1.00,0.92,-2.20,-24.35
172757,0.08,0.18,1.00,3.05,-3.11,-25.57
172773,0.08,0.17,0.99,2.62,-3.42,-26.86
172789,0.04,0.16,1.00,-1.83,-2.81,-28.75
172805,-0.00,0.15,1.00,-1.34,-2.26,-24.05
172821,-0.02,0.14,1.00,1.22,-1.95,-21.91
172837,-0.01,0.12,1.00,3.17,-1.95,-19.53
172853,-0.01,0.12,1.00,0.55,-2.08,-19.71
172869,-0.02,0.13,1.00,0.00,-2.26,-19.53
172885,-0.05,0.15,1.00,1.59,-2.44,-17.58
172901,-0.07,0.16,1.00,1.65,-1.77,-13.37
172917,-0.06,0.16,1.00,1.28,-1.59,-10.62
172933,-0.09,0.14,1.00,0.18,-1.95,-3.66
172949,-0.07,0.12,1.00,1.16,-2.01,0.73
172965,-0.07,0.12,1.00,1.34,-2.14,2.01
172981,-0.07,0.11,1.00,1.46,-1.89,4.46
172997,-0.08,0.09,1.00,0.24,-2.01,5.86
173013,-0.09,0.08,1.00,0.12,-2.08,8.06
173029,-0.10,0.06,1.00,1.59,-2.01,13.18
173045,-0.12,0.01,1.00,0.79,-2.08,16.36
173061,-0.11,-0.01,1.00,0.49,-2.01,15.81
173077,-0.09,-0.00,1.01,0.73,-1.83,10.86
173093,-0.07,0.02,1.00,-0.18,-2.01,7.69
173109,-0.07,0.02,1.00,1.04,-1.95,7.81
173125,-0.06,0.05,1.00,2.87,-2.44,11.47
173141,-0.09,0.02,1.00,1.65,-2.08,17.15
173157,-0.10,0.00,1.00,1.77,-1.89,19.59
173173,-0.12,-0.03,1.00,0.31,-1.83,23.80
173189,-0.14,-0.01,1.01,2.62,-1.34,24.90
173205,-0.13,-0.02,1.01,1.71,-1.40,24.54
173221,-0.12,-0.01,1.00,1.40,-1.53,25.33
173237,-0.12,-0.02,1.01,1.71,-1.28,29.36
173253,-0.13,-0.04,1.00,0.24,-1.28,31.01
173269,-0.13,-0.05,1.00,2.20,-0.85,31.56
173285,-0.13,-0.08,1.00,3.23,-0.73,30.15
173301,-0.12,-0.07,1.01,3.36,-1.10,29.54
173317,-0.12,-0.07,1.01,2.75,-1.04,29.79
173333,-0.09,-0.07,1.01,1.89,-1.53,31.43
173349,-0.08,-0.09,1.00,1.77,-1.22,32.71
173365,-0.07,-0.16,1.00,3.05,-1.04,33.69
173381,-0.07,-0.19,1.00,2.56,-0.92,31.56
173397,-0.07,-0.22,1.01,2.14,-0.92,29.72
173413,-0.07,-0.23,1.01,0.61,-0.79,24.66
173429,-0.05,-0.22,1.00,1.77,-0.98,16.97
173445,-0.02,-0.21,1.00,2.99,-1.28,12.82
173461,-0.00,-0.18,1.01,2.75,-1.65,6.29
173477,-0.02,-0.15,1.01,0.85,-1.04,2.26
173493,0.00,-0.14,1.01,0.31,-1.46,0.31
173509,0.04,-0.13,1.01,0.37,-2.08,-0.61
173525,0.05,-0.14,1.00,0.79,-2.08,0.73
173541,0.07,-0.14,1.01,1.71,-1.83,1.59
173557,0.09,-0.13,1.01,2.32,-2.08,-0.06
173573,0.10,-0.11,1.01,0.24,-2.26,-2.01
173589,0.10,-0.09,1.00,0.06,-2.08,-2.99
173605,0.14,-0.05,1.00,0.98,-1.16,-5.43
173621,0.16,0.01,1.01,2.14,-1.59,-3.30
173637,0.19,0.02,1.00,1.53,-2.08,-0.18
173653,0.15,-0.01,1.01,3.85,-1.71,9.16
173669,0.13,-0.04,1.01,1.83,-1.53,13.49
173685,0.12,-0.10,1.01,0.79,-1.40,12.39
173701,0.13,-0.09,1.00,2.32,-1.40,5.80
173717,0.15,-0.05,1.00,4.03,-1.59,-4.27
173733,0.16,0.00,1.00,4.33,-2.08,-7.51
173749,0.18,0.03,1.00,2.69,-2.44,-11.47
173765,0.18,0.04,1.00,2.01,-2.99,-13.73
173781,0.17,0.06,1.00,1.95,-3.11,-14.89
173797,0.15,0.07,1.00,2.62,-2.62,-16.17
173813,0.14,0.08,1.00,1.83,-2.50,-17.58
173829,0.12,0.10,1.00,2.93,-2.01,-19.29
173845,0.10,0.10,1.00,2.62,-2.01,-20.32
173861,0.09,0.10,1.00,2.69,-2.08,-20.26
173877,0.09,0.10,1.00,2.93,-2.56,-19.23
173893,0.11,0.05,1.01,-0.31,-2.14,-20.02
173909,0.11,0.06,1.00,-1.89,-2.44,-22.22
173925,0.12,0.06,0.99,-2.99,-2.50,-27.40
173941,0.09,0.09,1.00,2.32,-2.87,-28.20
173957,0.08,0.11,1.00,4.33,-2.93,-27.65
173973,0.07,0.09,1.00,1.16,-2.56,-26.00
173989,0.02,0.08,1.00,0.18,-3.23,-24.78
174005,0.01,0.09,0.99,-0.73,-3.30,-25.33
174021,-0.02,0.10,1.01,-1.95,-2.87,-26.79
174037,0.02,0.13,1.00,1.40,-2.56,-25.51
174053,0.03,0.13,1.00,3.30,-2.44,-23.44
174069,0.01,0.14,1.00,1.83,-2.44,-18.49
174085,-0.06,0.14,1.00,1.16,-2.32,-13.55
174101,-0.08,0.14,1.01,1.83,-2.32,-10.74
174117,-0.06,0.11,1.00,1.71,-1.71,-8.36
174133,-0.06,0.08,1.00,0.85,-1.89,-9.70
174149,-0.07,0.07,1.00,0.85,-1.95,-11.11
174165,-0.07,0.08,1.00,0.79,-2.14,-13.67
174181,-0.10,0.10,1.00,2.38,-2.26,-14.53
174197,-0.10,0.12,1.00,1.59,-2.20,-13.49
174213,-0.11,0.14,1.00,-0.18,-2.50,-8.79
174229,-0.11,0.12,1.00,0.37,-2.08,-0.18
174245,-0.10,0.10,1.00,0.79,-1.95,3.17
174261,-0.09,0.05,1.00,1.59,-2.01,6.53
174277,-0.10,0.04,1.00,2.99,-2.01,9.22
174293,-0.10,0.04,1.00,2.62,-1.95,10.86
174309,-0.12,0.03,1.00,1.22,-1.95,16.42
174325,-0.12,0.00,1.01,0.31,-2.08,20.08
174341,-0.11,-0.00,1.00,0.43,-2.20,20.02
174357,-0.12,0.03,1.00,2.44,-2.01,19.29
174373,-0.12,0.02,1.00,3.48,-1.77,21.97
174389,-0.12,0.03,1.00,3.30,-1.59,24.29
174405,-0.16,-0.00,1.00,3.11,-1.22,29.66
174421,-0.17,-0.00,1.00,2.75,-1.04,31.25
174437,-0.17,0.01,1.00,2.56,-1.10,31.80
174453,-0.16,-0.01,1.01,0.73,-1.46,33.57
174469,-0.15,0.01,1.01,0.79,-1.40,36.13
174485,-0.16,-0.01,1.00,-0.49,-1.59,37.41
174501,-0.14,-0.07,1.00,1.40,-1.04,37.96
174517,-0.09,-0.08,1.01,2.69,-0.92,36.93
174533,-0.08,-0.09,1.01,2.56,-0.92,36.62
174549,-0.05,-0.11,1.00,2.69,-0.67,35.71
174565,-0.05,-0.14,1.01,1.46,-0.43,35.52
174581,-0.06,-0.14,1.01,2.50,-1.04,34.67
174597,-0.07,-0.15,1.01,1.71,-1.40,31.98
174613,-0.04,-0.20,1.01,0.85,-1.59,25.51
174629,-0.01,-0.21,1.00,2.69,-0.92,21.55
174645,0.02,-0.22,1.01,3.66,-1.71,14.65
174661,0.04,-0.21,1.01,1.71,-1.22,7.51
174677,0.06,-0.19,1.00,1.10,-1.53,3.11
174693,0.03,-0.15,1.00,0.06,-1.59,-3.85
174709,0.04,-0.14,1.00,0.73,-1.71,-7.32
174725,0.02,-0.14,1.01,1.10,-2.38,-8.73
174741,0.06,-0.14,1.00,1.95,-2.38,-11.90
174757,0.08,-0.13,1.00,2.08,-2.20,-15.63
174773,0.10,-0.09,1.00,1.53,-2.26,-16.60
174789,0.09,-0.08,1.01,0.00,-2.38,-16.17
174805,0.07,-0.08,1.00,0.24,-1.83,-14.89
174821,0.08,-0.06,1.00,0.98,-1.46,-15.26
174837,0.08,-0.04,1.01,0.85,-1.46,-14.22
174853,0.09,-0.02,1.01,1.04,-1.89,-12.39
174869,0.12,-0.01,1.00,2.69,-2.08,-9.03
174885,0.15,-0.02,1.00,2.38,-1.59,-4.58
174901,0.16,-0.03,1.01,1.71,-1.65,-2.75
174917,0.15,-0.04,1.00,1.53,-1.95,-2.50
174933,0.12,-0.02,1.00,4.39,-1.89,-3.78
174949,0.13,-0.00,1.00,3.85,-1.71,-6.29
174965,0.12,0.01,1.00,3.66,-1.77,-8.54
174981,0.12,-0.00,1.00,3.36,-1.71,-10.25
174997,0.13,0.01,1.00,3.60,-1.95,-11.35
175013,0.16,0.03,1.00,3.42,-2.26,-15.81
175029,0.16,0.04,1.00,1.40,-2.81,-19.04
175045,0.16,0.04,1.00,0.61,-2.99,-18.62
175061,0.13,0.05,1.00,0.31,-2.87,-19.04
175077,0.12,0.02,1.00,2.20,-1.95,-20.94
175093,0.10,0.03,1.02,0.98,-1.77,-22.28
175109,0.11,0.02,1.00,1.16,-2.14,-23.25
175125,0.11,0.04,0.99,3.36,-2.32,-25.94
175141,0.11,0.07,1.00,6.53,-2.56,-27.53
175157,0.15,0.09,1.00,3.72,-2.69,-31.92
175173,0.15,0.10,1.00,-0.24,-2.93,-33.33
175189,0.13,0.09,1.00,-0.24,-3.17,-33.57
175205,0.08,0.11,1.01,1.59,-3.17,-33.02
175221,0.05,0.12,1.00,0.98,-3.54,-30.70
175237,0.03,0.12,1.00,1.95,-3.23,-30.46
175253,0.01,0.12,1.01,-1.83,-2.75,-30.09
175269,-0.02,0.14,1.00,-2.26,-2.87,-27.95
175285,-0.02,0.16,1.00,0.73,-2.50,-27.40
175301,-0.01,0.17,1.00,1.71,-1.83,-24.78
175317,-0.03,0.16,1.00,1.28,-2.14,-22.03
175333,-0.04,0.15,1.00,1.83,-2.26,-20.57
175349,-0.06,0.13,1.00,2.08,-1.77,-19.71
175365,-0.10,0.13,1.00,0.06,-2.08,-18.25
175381,-0.09,0.15,1.00,0.92,-2.08,-17.03
175397,-0.07,0.15,1.00,3.54,-2.32,-14.59
175413,-0.10,0.12,1.00,0.73,-2.99,-11.17
175429,-0.10,0.12,0.99,-0.61,-2.62,-8.42
175445,-0.16,0.09,1.01,-0.43,-1.95,-4.03
175461,-0.18,0.07,1.00,0.18,-1.53,-2.26
175477,-0.19,0.08,1.00,1.28,-1.53,-2.99
175493,-0.18,0.07,1.00,1.22,-2.08,-2.01
175509,-0.17,0.06,1.00,1.53,-2.50,1.22
175525,-0.17,0.05,1.00,0.49,-2.44,2.93
175541,-0.18,0.01,1.00,-0.98,-2.69,7.51
175557,-0.20,0.01,1.01,1.59,-2.32,10.74
175573,-0.20,0.02,1.00,2.38,-2.14,12.33
175589,-0.20,0.02,1.00,3.66,-2.20,15.20
175605,-0.20,0.03,1.00,3.42,-1.83,19.90
175621,-0.20,0.03,1.00,4.33,-1.53,22.95
175637,-0.20,0.01,1.00,2.14,-1.22,28.26
175653,-0.17,-0.02,1.00,2.50,-0.79,34.48
175669,-0.15,-0.04,1.01,1.04,-1.16,37.84
175685,-0.15,-0.05,1.00,-0.98,-1.22,41.20
175701,-0.16,-0.06,1.00,0.73,-0.73,43.27
175717,-0.13,-0.07,1.00,2.69,-0.55,44.43
175733,-0.10,-0.16,1.01,2.56,-0.55,46.69
175749,-0.09,-0.19,1.01,2.14,-0.98,44.31
175765,-0.05,-0.25,1.00,3.36,0.00,41.08
175781,-0.04,-0.26,1.01,2.44,-1.46,31.68
175797,-0.03,-0.23,1.01,1.46,-1.16,24.11
175813,-0.03,-0.21,1.00,1.04,-0.18,21.36
175829,-0.02,-0.19,1.00,2.62,-1.40,18.55
175845,0.02,-0.19,1.01,0.79,-0.43,18.25
175861,0.05,-0.20,1.00,2.75,-0.92,18.31
175877,0.07,-0.21,1.00,1.65,-1.16,16.66
175893,0.05,-0.22,1.01,0.24,-1.28,14.59
175909,0.08,-0.21,1.02,3.17,-1.40,11.66
175925,0.08,-0.18,1.00,1.83,-2.38,6.96
175941,0.11,-0.17,1.01,0.73,-2.44,5.19
175957,0.15,-0.14,1.01,0.85,-1.65,0.55
175973,0.15,-0.12,1.01,3.36,-1.10,-1.34
175989,0.15,-0.11,1.00,3.97,-1.22,-1.40
176005,0.16,-0.12,1.01,-0.24,-1.95,-0.92
176021,0.19,-0.10,1.00,2.14,-1.95,-0.92
176037,0.19,-0.09,1.00,0.98,-2.26,-2.56
176053,0.17,-0.07,1.00,1.89,-1.71,-4.82
176069,0.16,-0.05,1.01,1.04,-2.01,-8.42
176085,0.16,-0.03,1.01,-0.43,-2.14,-8.97
176101,0.15,-0.02,1.00,-0.55,-2.26,-8.91
176117,0.15,-0.05,1.02,0.61,-2.08,-11.35
176133,0.16,-0.03,1.00,4.27,-2.08,-12.82
176149,0.14,0.01,1.00,1.89,-2.20,-20.02
176165,0.15,0.08,1.00,2.14,-2.26,-26.55
176181,0.17,0.11,1.01,2.20,-2.08,-26.43
176197,0.19,0.11,1.00,3.17,-2.08,-21.67
176213,0.13,0.08,1.00,3.91,-2.01,-18.98
176229,0.15,0.06,1.00,1.65,-2.14,-18.43
176245,0.11,0.01,1.01,-2.01,-3.17,-16.17
176261,0.10,0.01,1.01,-5.19,-2.75,-22.52
176277,0.09,0.01,0.99,-3.85,-2.38,-26.12
176293,0.08,0.07,1.00,-1.10,-2.01,-32.78
176309,0.11,0.11,0.98,3.60,-2.32,-32.47
176325,0.10,0.14,1.00,7.93,-1.95,-30.21
176341,0.08,0.13,1.00,5.55,-2.26,-28.32
176357,0.06,0.09,1.00,2.87,-2.44,-27.04
176373,0.03,0.10,1.00,2.69,-3.36,-26.31
176389,-0.03,0.14,1.01,2.69,-2.81,-23.56
176405,-0.03,0.15,0.99,0.92,-2.87,-22.52
176421,-0.01,0.16,0.99,0.98,-2.62,-21.79
176437,-0.04,0.17,1.00,0.98,-2.93,-19.04
176453,-0.06,0.14,1.00,0.43,-2.20,-14.53
176469,-0.07,0.15,0.99,1.83,-2.44,-13.67
176485,-0.09,0.16,1.00,0.98,-1.83,-12.51
176501,-0.08,0.16,1.00,2.32,-1.71,-9.40
176517,-0.09,0.16,1.00,1.83,-1.40,-7.45
176533,-0.09,0.12,1.00,1.46,-1.28,-2.08
176549,-0.09,0.07,1.00,0.79,-1.77,-0.24
176565,-0.11,0.06,1.01,1.28,-1.89,-0.79
176581,-0.09,0.06,1.00,1.34,-1.77,-3.23
176597,-0.09,0.07,1.00,2.44,-2.14,-4.70
176613,-0.08,0.08,1.00,3.36,-2.08,-4.33
176629,-0.10,0.07,1.00,1.65,-2.44,0.12
176645,-0.11,0.05,1.00,0.79,-2.38,5.92
176661,-0.10,0.04,1.00,0.12,-2.01,7.57
176677,-0.11,0.01,1.00,1.59,-1.46,10.44
176693,-0.11,-0.03,1.00,1.28,-1.46,12.21
176709,-0.11,-0.04,1.00,1.22,-1.65,12.82
176725,-0.10,-0.05,1.01,1.16,-1.77,13.06
176741,-0.11,-0.03,1.00,1.22,-2.08,10.25
176757,-0.10,-0.01,1.00,1.53,-2.01,8.00
176773,-0.09,0.00,1.01,1.83,-2.14,7.51
176789,-0.10,0.02,1.00,1.04,-2.20,9.95
176805,-0.10,0.03,1.00,1.28,-2.01,10.80
176821,-0.11,0.06,1.00,0.92,-1.77,13.67
176837,-0.11,0.09,1.00,-0.79,-1.65,21.00
176853,-0.12,0.10,1.00,-1.53,-1.83,26.67
176869,-0.13,0.04,1.00,-0.31,-1.89,37.23
176885,-0.15,-0.01,0.99,0.31,-1.46,39.37
176901,-0.15,-0.06,1.01,1.89,-1.77,37.48
176917,-0.12,-0.06,1.00,-1.95,-1.59,32.65
176933,-0.09,-0.07,1.00,-5.49,-1.16,33.51
176949,-0.08,-0.08,1.01,-6.10,-1.04,35.52
176965,-0.09,-0.12,0.99,-1.65,-1.16,39.86
176981,-0.06,-0.17,1.03,2.01,-0.73,39.73
176997,-0.08,-0.24,1.01,-3.11,-1.16,38.64
177013,-0.09,-0.24,0.99,-4.70,-1.77,32.10
177029,-0.08,-0.23,1.00,-0.73,-1.53,28.08
177045,-0.03,-0.21,1.00,7.69,-1.16,22.64
177061,-0.01,-0.19,1.00,10.62,-0.79,22.95
177077,-0.00,-0.21,1.01,10.99,-0.98,24.72
177093,0.03,-0.20,1.01,13.43,-1.34,26.73
177109,0.07,-0.19,1.01,3.97,-1.40,26.12
177125,0.06,-0.18,1.01,2.08,-1.40,25.82
177141,0.09,-0.15,1.02,3.17,-1.59,24.05
177157,0.09,-0.16,1.00,1.34,-2.87,22.09
177173,0.13,-0.17,1.00,0.31,-2.08,22.34
177189,0.17,-0.19,1.02,0.49,-0.61,23.50
177205,0.21,-0.19,1.00,2.32,-1.46,22.46
177221,0.20,-0.18,1.00,2.01,-2.01,20.51
177237,0.23,-0.12,1.00,3.54,-1.16,11.60
177253,0.23,-0.05,1.01,2.87,-1.59,4.27
177269,0.22,-0.04,1.00,1.28,-1.95,1.59
177285,0.21,-0.02,1.00,4.39,-1.59,-2.08
177301,0.23,0.02,1.00,3.30,-2.01,-8.12
177317,0.24,0.05,1.00,2.93,-2.20,-11.05
177333,0.24,0.10,1.00,2.20,-2.81,-14.77
177349,0.22,0.11,0.99,0.18,-2.62,-14.40
177365,0.21,0.08,0.99,-0.79,-2.26,-13.79
177381,0.18,0.06,1.01,2.01,-1.46,-18.19
177397,0.15,0.06,1.00,1.65,-2.50,-22.95
177413,0.15,0.09,1.00,1.95,-2.56,-24.96
177429,0.11,0.12,1.00,4.82,-2.44,-26.00
177445,0.11,0.14,1.00,1.71,-1.95,-25.57
177461,0.12,0.14,1.00,-0.31,-2.38,-25.39
177477,0.13,0.15,0.99,0.73,-2.50,-24.41
177493,0.06,0.15,1.01,1.53,-2.93,-21.30
177509,0.04,0.15,1.00,1.40,-2.75,-18.92
177525,0.00,0.15,0.99,0.06,-2.38,-14.65
177541,-0.01,0.16,1.00,-3.78,-1.59,-9.89
177557,-0.01,0.16,1.00,-1.22,-1.89,-8.12
177573,-0.05,0.18,0.99,4.09,-1.83,-7.14
177589,-0.04,0.18,1.00,1.22,-1.77,-4.21
177605,-0.08,0.17,1.00,0.85,-2.01,-3.05
177621,-0.15,0.14,1.00,1.16,-1.71,0.31
177637,-0.14,0.15,1.00,-1.10,-1.89,2.93
177653,-0.15,0.14,1.00,-0.18,-1.59,2.75
177669,-0.11,0.13,1.00,0.67,-2.32,1.83
177685,-0.08,0.15,1.00,1.16,-2.14,-0.06
177701,-0.08,0.15,1.00,1.40,-1.89,-0.61
177717,-0.12,0.13,1.00,0.92,-2.32,3.17
177733,-0.14,0.09,1.00,2.99,-2.14,6.90
177749,-0.15,0.06,1.01,3.23,-2.14,7.93
177765,-0.14,0.03,1.00,1.89,-2.08,9.89
177781,-0.14,0.03,1.00,2.32,-1.95,8.91
177797,-0.14,0.01,1.00,1.53,-1.95,8.36
177813,-0.16,0.02,1.00,0.00,-2.56,8.00
177829,-0.18,0.03,1.00,2.08,-2.44,6.71
177845,-0.16,0.06,1.00,3.60,-2.20,6.71
177861,-0.16,0.06,1.00,3.48,-1.71,10.38
177877,-0.16,0.05,1.00,1.16,-1.16,17.76
177893,-0.16,0.02,1.00,0.31,-0.98,21.48
177909,-0.17,0.01,1.01,0.92,-1.46,26.31
177925,-0.18,-0.01,1.00,-1.22,-2.01,28.08
177941,-0.16,-0.01,1.00,1.10,-1.22,29.24
177957,-0.14,-0.06,1.01,2.20,-0.79,31.92
177973,-0.14,-0.07,1.00,3.30,-0.79,34.97
177989,-0.13,-0.11,1.01,2.81,-0.73,36.19
178005,-0.11,-0.17,1.00,1.83,-1.34,36.80
178021,-0.09,-0.19,1.02,3.23,-0.67,33.02
178037,-0.08,-0.19,1.01,3.42,-1.10,30.58
178053,-0.07,-0.21,1.00,0.18,-1.71,25.39
178069,-0.07,-0.22,1.01,0.06,-1.40,23.62
178085,-0.07,-0.20,1.00,2.08,-1.59,20.08
178101,-0.06,-0.20,1.01,1.83,-0.49,17.21
178117,-0.06,-0.19,1.00,3.54,-0.92,16.17
178133,-0.01,-0.17,1.00,2.56,-1.04,15.20
178149,0.04,-0.20,1.01,0.18,-1.71,16.42
178165,0.05,-0.18,1.01,4.15,-1.71,16.42
178181,0.09,-0.18,0.99,0.85,-2.62,16.11
178197,0.12,-0.22,1.01,5.37,-2.44,16.78
178213,0.11,-0.25,1.00,3.78,-1.65,16.24
178229,0.06,-0.23,1.01,3.91,-0.61,10.80
178245,0.09,-0.19,1.01,1.71,-1.40,2.75
178261,0.08,-0.17,1.01,1.40,-1.04,-0.31
178277,0.15,-0.11,1.01,4.09,-1.95,-4.82
178293,0.17,-0.07,1.01,4.27,-1.89,-5.43
178309,0.20,-0.06,1.00,2.38,-2.14,-5.92
178325,0.18,-0.02,0.98,-3.78,-2.32,-4.09
178341,0.13,-0.08,1.01,0.31,-1.77,-2.20
178357,0.16,-0.05,1.01,3.85,-1.46,-3.60
178373,0.16,-0.06,1.00,0.73,-1.83,-5.07
178389,0.19,-0.06,1.00,1.77,-1.59,-8.85
178405,0.20,-0.04,1.00,2.99,-1.89,-11.66
178421,0.22,-0.00,1.00,3.72,-2.08,-15.99
178437,0.20,0.04,1.00,2.14,-2.14,-20.75
178453,0.17,0.04,1.00,2.81,-2.08,-22.16
178469,0.16,0.06,1.00,2.75,-3.11,-23.93
178485,0.15,0.10,1.00,2.87,-2.20,-24.90
178501,0.13,0.13,1.00,2.81,-2.14,-25.94
178517,0.12,0.14,1.00,2.69,-1.77,-24.23
178533,0.12,0.09,1.01,0.43,-2.08,-18.68
178549,0.12,0.07,1.00,-1.10,-2.62,-17.58
178565,0.16,0.02,0.99,-4.33,-3.60,-20.63
178581,0.14,0.06,1.01,4.27,-1.65,-29.60
178597,0.17,0.08,0.98,4.46,-1.89,-32.35
178613,0.13,0.14,1.00,6.41,-2.87,-31.68
178629,0.02,0.12,1.01,1.16,-2.81,-21.00
178645,-0.00,0.10,1.00,-1.16,-3.60,-15.14
178661,-0.04,0.12,1.01,-0.12,-2.44,-13.92
178677,-0.01,0.17,1.00,-0.61,-2.56,-19.71
178693,-0.02,0.22,0.99,0.73,-2.50,-21.24
178709,0.02,0.26,1.00,0.49,-2.81,-22.58
178725,0.01,0.23,0.99,-0.73,-2.75,-23.07
178741,-0.00,0.23,1.00,1.71,-2.44,-20.87
178757,-0.03,0.21,1.00,3.23,-1.77,-10.56
178773,-0.06,0.16,1.00,-0.73,-2.26,3.85
178789,-0.07,0.15,1.01,0.06,-1.71,8.42
178805,-0.07,0.11,1.00,1.34,-1.40,9.77
178821,-0.08,0.10,1.00,0.49,-1.95,5.55
178837,-0.12,0.11,1.01,1.95,-2.08,4.39
178853,-0.16,0.11,1.00,1.04,-2.32,6.16
178869,-0.20,0.08,1.00,-0.06,-1.83,5.43
178885,-0.18,0.06,1.00,-1.04,-1.95,3.11
178901,-0.13,0.07,1.00,0.67,-1.83,-3.17
178917,-0.13,0.07,1.00,1.40,-2.26,-5.98
178933,-0.13,0.09,1.00,2.08,-2.20,-5.37
178949,-0.14,0.08,1.00,1.04,-2.26,-1.65
178965,-0.17,0.08,1.01,0.43,-2.56,4.82
178981,-0.17,0.07,1.01,-0.31,-2.69,7.81
178997,-0.18,0.08,1.00,1.71,-3.05,13.61
179013,-0.19,0.07,1.00,4.58,-2.32,19.04
179029,-0.23,0.06,1.00,3.30,-2.38,22.16
179045,-0.24,0.04,1.00,4.46,-1.40,28.69
179061,-0.25,0.02,1.00,2.75,-0.61,34.55
179077,-0.20,-0.00,1.01,2.75,-0.67,35.95
179093,-0.19,-0.06,0.99,-2.20,-1.10,38.15
179109,-0.20,-0.07,1.00,-0.73,-0.67,38.70
179125,-0.18,-0.11,1.01,1.28,-0.24,40.10
179141,-0.16,-0.20,1.01,0.67,-0.67,40.04
179157,-0.13,-0.23,1.02,2.08,-0.79,38.33
179173,-0.07,-0.27,1.01,1.65,-0.61,33.20
179189,-0.08,-0.28,1.00,-0.06,-1.28,28.81
179205,-0.05,-0.25,1.01,2.01,-1.28,27.77
179221,-0.04,-0.26,1.01,1.71,-0.79,26.18
179237,-0.03,-0.24,1.00,4.33,-1.22,23.32
179253,0.01,-0.24,1.01,3.85,-1.10,22.16
179269,0.01,-0.24,1.00,3.54,-0.85,19.96
179285,0.03,-0.20,1.00,3.11,-1.40,16.54
179301,0.03,-0.20,1.01,1.04,-0.92,15.63
179317,0.06,-0.20,1.01,3.66,-2.50,14.71
179333,0.07,-0.21,1.00,2.44,-1.77,13.18
179349,0.14,-0.22,1.02,2.20,-1.95,12.70
179365,0.14,-0.19,1.01,5.00,-1.40,8.48
179381,0.13,-0.15,1.01,3.85,-1.89,4.64
179397,0.12,-0.14,1.01,3.48,-1.22,2.62
179413,0.13,-0.10,1.01,0.73,-2.01,0.37
179429,0.15,-0.07,1.00,2.69,-2.50,-0.67
179445,0.15,-0.10,1.02,2.81,-2.20,-0.79
179461,0.17,-0.08,1.00,-4.33,-1.40,0.18
179477,0.20,-0.06,1.01,0.79,-1.53,1.71
179493,0.19,-0.05,1.00,-1.34,-1.59,0.24
179509,0.17,-0.03,1.01,3.78,-1.53,-1.16
179525,0.18,-0.05,1.00,2.81,-2.08,-4.27
179541,0.20,-0.06,1.00,2.20,-2.20,-6.10
179557,0.22,-0.04,1.01,2.20,-2.38,-11.84
179573,0.21,-0.01,1.00,2.08,-2.01,-17.52
179589,0.20,0.01,1.00,3.11,-2.75,-20.14
179605,0.17,0.06,1.00,2.93,-3.17,-24.29
179621,0.15,0.08,1.00,0.06,-3.23,-25.88
179637,0.13,0.09,1.00,1.10,-2.38,-25.21
179653,0.10,0.15,1.01,5.68,-1.71,-26.06
179669,0.13,0.16,1.00,3.78,-1.89,-25.94
179685,0.13,0.15,1.00,3.60,-1.71,-24.54
179701,0.16,0.20,0.97,-0.67,-2.44,-25.27
179717,0.14,0.17,1.00,-0.67,-2.87,-29.24
179733,0.14,0.21,0.99,-0.24,-3.36,-31.25
179749,0.02,0.25,1.00,4.09,-3.54,-27.04
179765,-0.04,0.26,1.00,0.12,-3.11,-22.46
179781,-0.06,0.26,1.00,3.17,-3.30,-18.43
179797,-0.05,0.22,1.00,-1.65,-2.44,-14.10
179813,-0.05,0.18,1.00,-2.44,-1.95,-14.34
179829,-0.03,0.17,1.00,-0.37,-2.26,-15.63
179845,-0.05,0.18,1.00,2.99,-2.38,-16.05
179861,-0.14,0.20,1.00,1.53,-2.38,-8.97
179877,-0.17,0.17,1.00,1.46,-2.14,-4.58
179893,-0.14,0.15,1.00,3.17,-2.01,-0.37
179909,-0.08,0.14,1.00,1.40,-1.59,-0.37
179925,-0.07,0.14,1.00,0.06,-1.59,-0.55
179941,-0.07,0.13,1.00,-0.73,-1.89,2.14
179957,-0.12,0.09,1.01,-2.81,-1.77,9.77
179973,-0.16,0.06,1.00,-1.95,-2.08,12.82
179989,-0.15,0.03,1.00,0.92,-1.95,15.32
180005,-0.14,0.02,1.00,2.38,-1.71,13.67