time,accel_x,accel_y,accel_z,gyro_x,gyro_y,gyro_z
100022,0.13,-0.24,1.01,2.32,-2.14,5.86
100037,0.15,-0.25,1.00,0.85,-2.56,3.72
100053,0.16,-0.23,1.01,0.85,-2.62,-0.85
100069,0.13,-0.18,1.00,-0.73,-2.20,-11.96
100085,0.14,-0.12,1.00,4.03,-1.89,-22.89
100101,0.17,-0.11,1.01,3.23,-1.59,-24.60
100117,0.21,-0.08,1.01,-0.73,-1.65,-21.55
100133,0.25,-0.06,1.00,-0.67,-2.44,-15.20
100149,0.27,-0.04,1.00,0.37,-2.32,-10.38
100165,0.28,-0.02,1.00,4.94,-1.71,0.00
100181,0.26,-0.03,1.00,-2.20,-2.08,5.49
100197,0.24,-0.06,1.00,-2.01,-2.32,6.41
100213,0.22,-0.05,0.99,3.11,-2.01,-0.67
100229,0.18,-0.05,1.00,2.99,-2.01,-10.31
100245,0.11,-0.00,0.98,-1.16,-1.95,-10.07
100261,-0.01,0.14,1.03,1.22,-2.81,-23.86
100277,0.07,0.28,1.02,-5.19,-2.56,-54.38
100293,-0.02,0.27,0.97,-2.87,-2.32,-56.34
100309,-0.30,0.37,0.99,12.57,-2.69,-53.65
100325,-0.23,0.22,1.00,13.37,-3.30,-63.11
100341,-0.14,0.23,0.99,7.45,-2.99,-58.17
100357,0.01,0.15,1.03,-2.38,-2.50,-33.14
100373,0.07,0.11,1.02,-1.16,-1.95,-4.33
100389,0.05,0.10,1.01,-7.45,-2.01,8.12
100405,-0.09,0.46,1.21,-60.67,-5.31,8.06
100421,-0.29,-0.03,0.84,-10.74,-1.04,-17.09
100437,-0.35,0.30,1.29,60.36,-3.91,-6.71
100453,-0.04,-0.17,0.86,-40.22,-1.28,0.85
100469,0.00,0.03,1.09,20.69,-2.44,12.21
100485,0.05,-0.02,1.02,0.18,-1.83,14.04
100501,0.13,-0.06,0.97,0.55,-2.08,25.63
100517,0.03,0.00,1.02,-3.91,-2.32,36.74
100533,-0.03,0.01,0.99,-9.03,-2.01,34.55
100549,-0.03,-0.01,1.01,-3.72,-2.14,29.72
100565,0.04,-0.05,1.01,0.55,-2.50,34.18
100581,0.12,-0.09,0.99,-0.06,-2.62,40.71
100597,0.11,-0.12,0.99,2.44,-3.42,64.39
100613,0.08,-0.08,1.00,3.11,-4.46,87.83
100629,-0.06,0.10,1.04,0.61,-4.15,90.33
100645,0.09,-0.06,1.02,-3.97,-3.17,71.41
100661,0.13,-0.04,0.99,-1.53,-3.17,64.21
100677,0.12,-0.08,0.98,-0.37,-3.05,59.20
100693,0.09,-0.05,1.00,1.16,-3.17,45.23
100709,0.10,-0.01,0.99,4.03,-2.50,27.04
100725,0.08,0.04,1.03,3.66,-2.01,19.59
100741,0.18,0.06,1.00,0.55,-1.83,15.38
100757,0.11,0.03,1.01,1.22,-2.08,16.78
100773,-0.02,-0.03,1.00,2.87,-2.14,12.82
100789,0.02,-0.09,0.98,2.20,-1.95,-0.43
100805,-0.18,-0.01,1.03,4.64,-1.71,-2.69
100821,0.02,0.11,1.01,-0.12,-1.65,-12.94
100837,0.05,0.10,1.00,2.01,-1.40,-10.93
100853,0.00,0.05,1.00,2.38,-1.77,-9.16
100869,-0.10,0.02,1.01,3.60,-1.22,-7.39
100885,0.01,0.13,1.03,1.83,-1.53,-6.29
100901,0.02,0.15,1.02,0.37,-1.77,-4.94
100917,-0.09,0.00,0.99,0.12,-1.59,-2.93
100933,-0.12,-0.07,1.00,3.78,-1.71,-6.71
100949,-0.07,-0.01,1.00,2.20,-1.65,-10.50
100965,-0.04,0.04,1.01,0.06,-1.40,-14.83
100981,-0.03,0.03,1.01,0.49,-1.46,-13.79
100997,-0.07,-0.02,1.01,2.56,-1.83,-12.08
101013,-0.10,-0.03,1.00,3.91,-2.08,-8.24
101029,-0.14,-0.04,0.99,4.09,-2.14,-3.91
101045,-0.13,-0.01,0.99,5.19,-2.44,-0.73
101061,-0.11,-0.02,1.00,10.13,-2.26,5.43
101077,-0.10,-0.03,1.00,15.99,-2.38,12.70
101093,-0.08,-0.04,1.01,19.71,-2.38,14.77
101109,-0.05,-0.03,1.01,16.78,-1.95,15.81
101125,-0.03,0.05,1.01,8.79,-2.01,7.57
101141,-0.01,0.10,1.01,4.03,-2.14,2.20
101157,-0.08,0.17,1.02,-1.28,-2.56,-8.67
101173,-0.17,0.02,1.00,-2.56,-2.14,-16.05
101189,-0.19,-0.11,0.99,-0.73,-1.65,-10.62
101205,-0.13,-0.14,1.01,-0.79,-1.89,16.72
101221,-0.12,-0.10,1.01,-4.82,-2.44,45.96
101237,-0.14,-0.08,1.00,-7.14,-2.87,55.85
101253,-0.13,-0.14,0.99,-7.81,-2.20,55.05
101269,-0.05,-0.19,1.01,6.41,-2.44,41.93
101285,-0.05,-0.20,0.98,8.61,-2.56,32.04
101301,-0.04,-0.17,1.00,6.96,-2.32,12.02
101317,-0.03,-0.11,1.02,7.51,-1.59,2.87
101333,-0.05,-0.06,1.01,5.13,-1.28,4.58
101349,-0.11,-0.04,1.00,4.03,-1.40,13.12
101365,-0.08,-0.08,1.00,11.72,-2.08,21.48
101381,-0.03,-0.11,0.99,12.82,-1.77,25.88
101397,0.10,-0.18,1.01,12.39,-2.01,33.14
101413,0.08,-0.17,1.00,11.96,-1.22,31.31
101429,0.00,-0.15,1.01,13.06,-1.04,28.81
101445,-0.04,-0.12,1.01,12.21,-0.73,27.77
101461,0.04,-0.14,1.01,4.76,-0.61,26.86
101477,0.08,-0.15,1.00,3.91,-1.04,27.10
101493,0.11,-0.15,1.01,4.33,-0.43,29.17
101509,0.09,-0.15,1.01,3.91,-0.85,30.15
101525,0.08,-0.17,1.00,3.23,-0.73,30.64
101541,0.08,-0.19,1.00,2.81,-1.22,27.16
101557,0.09,-0.19,1.01,3.97,-1.59,22.71
101573,0.09,-0.16,1.01,4.15,-1.53,19.96
101589,0.11,-0.12,1.01,3.17,-1.53,9.58
101605,0.12,-0.09,1.01,2.38,-1.83,-1.16
101621,0.12,-0.07,1.00,2.38,-2.08,-5.43
101637,0.15,-0.04,1.01,3.23,-2.38,-9.09
101653,0.16,-0.03,1.01,2.08,-2.62,-11.54
101669,0.14,-0.04,1.00,1.53,-2.50,-13.61
101685,0.14,-0.02,1.01,0.37,-2.56,-18.62
101701,0.14,-0.01,1.00,1.40,-2.75,-22.16
101717,0.15,0.03,1.00,1.28,-2.69,-24.48
101733,0.17,0.07,1.00,0.98,-2.50,-26.92
101749,0.16,0.07,1.02,0.12,-3.05,-25.45
101765,0.18,0.10,1.01,2.50,-2.99,-23.62
101781,0.17,0.09,1.00,0.61,-2.81,-24.96
101797,0.15,0.08,1.00,0.49,-2.81,-25.63
101813,0.08,0.13,1.00,0.31,-3.05,-25.76
101829,0.03,0.17,1.00,0.31,-3.42,-25.57
101845,0.05,0.18,1.00,-1.40,-2.93,-23.50
101861,0.07,0.18,1.00,-2.93,-2.38,-17.88
101877,0.05,0.18,1.00,-0.73,-2.44,-11.29
101893,0.05,0.19,1.00,-0.31,-2.08,-10.13
101909,0.05,0.21,1.00,0.61,-2.14,-12.76
101925,-0.03,0.20,1.00,-1.28,-2.08,-12.57
101941,-0.03,0.21,1.00,1.59,-2.32,-10.25
101957,-0.05,0.20,1.00,1.59,-1.77,-5.68
101973,-0.02,0.17,1.00,1.59,-1.59,-0.92
101989,-0.01,0.17,1.00,-0.43,-1.59,1.83
102005,-0.02,0.17,1.00,0.37,-1.95,7.57
102021,-0.03,0.14,1.01,3.54,-1.65,11.60
102037,-0.04,0.12,1.00,4.46,-1.71,14.16
102053,-0.07,0.05,1.00,2.01,-1.71,20.69
102069,-0.06,0.04,1.00,1.46,-1.71,23.13
102085,-0.06,0.07,1.00,1.46,-1.40,21.30
102101,-0.07,0.09,1.01,2.81,-1.59,17.09
102117,-0.08,0.10,1.01,2.81,-1.77,18.62
102133,-0.08,0.11,1.00,2.20,-1.83,21.91
102149,-0.10,0.11,1.00,1.95,-1.59,30.33
102165,-0.12,0.04,1.01,0.37,-1.46,37.96
102181,-0.12,0.01,1.00,0.37,-1.46,38.45
102197,-0.11,0.02,1.00,4.70,-1.71,35.28
102213,-0.13,0.01,1.01,3.36,-1.65,34.36
102229,-0.13,0.06,1.00,1.22,-1.53,34.73
102245,-0.14,0.09,1.00,-1.59,-1.53,40.10
102261,-0.14,0.05,1.00,1.34,-1.04,52.37
102277,-0.14,-0.01,1.00,-0.24,-0.61,55.05
102293,-0.15,-0.05,1.00,2.69,-0.73,53.89
102309,-0.14,-0.05,1.01,1.71,-1.16,50.96
102325,-0.15,-0.06,0.99,0.06,-0.85,49.01
102341,-0.12,-0.06,1.00,3.97,-0.55,46.26
102357,-0.09,-0.08,1.01,2.14,-0.67,41.32
102373,-0.09,-0.09,1.01,1.65,-0.85,39.12
102389,-0.08,-0.11,1.00,0.24,-1.28,36.44
102405,-0.07,-0.10,1.00,-0.55,-1.59,32.17
102421,-0.08,-0.11,1.00,-0.31,-1.77,30.46
102437,-0.08,-0.12,1.01,2.14,-1.10,26.55
102453,-0.10,-0.12,1.01,2.44,-1.34,21.85
102469,-0.08,-0.13,1.01,1.10,-1.65,20.69
102485,-0.11,-0.15,1.00,0.06,-1.22,18.01
102501,-0.09,-0.15,1.00,2.08,-1.40,13.00
102517,-0.07,-0.15,1.00,1.89,-1.59,11.66
102533,-0.02,-0.14,1.01,0.18,-1.83,7.02
102549,-0.02,-0.13,1.01,0.98,-1.83,2.20
102565,-0.01,-0.13,1.01,3.11,-1.53,0.49
102581,-0.01,-0.09,1.00,4.03,-1.46,-3.54
102597,-0.00,-0.07,1.01,2.75,-1.46,-3.78
102613,0.01,-0.09,1.01,1.40,-1.65,-2.38
102629,0.04,-0.12,1.01,3.42,-1.34,-1.34
102645,0.06,-0.14,1.00,1.34,-1.71,-1.59
102661,0.08,-0.13,1.01,2.01,-1.77,-2.81
102677,0.05,-0.12,1.00,1.89,-2.01,-6.41
102693,0.07,-0.09,1.01,3.17,-2.20,-7.20
102709,0.08,-0.06,1.01,3.05,-2.14,-4.21
102725,0.08,-0.06,1.01,0.37,-1.71,-1.10
102741,0.08,-0.07,1.00,-1.53,-1.83,-2.26
102757,0.07,-0.07,1.01,5.00,-1.95,-1.53
102773,0.10,-0.06,1.00,3.11,-2.14,-2.20
102789,0.10,-0.05,1.00,2.38,-1.89,-3.23
102805,0.15,-0.04,1.01,1.04,-1.89,-4.03
102821,0.14,-0.04,1.00,0.24,-1.59,-3.11
102837,0.13,-0.04,1.00,0.00,-2.01,-6.71
102853,0.13,-0.01,1.01,-0.61,-2.26,-10.56
102869,0.12,-0.01,1.00,1.53,-2.38,-13.55
102885,0.13,-0.00,1.00,2.87,-2.56,-13.31
102901,0.15,-0.04,1.00,5.86,-2.20,-15.08
102917,0.15,0.02,1.01,7.63,-2.38,-21.06
102933,0.14,0.03,1.01,5.43,-2.50,-24.23
102949,0.14,0.08,1.00,2.87,-2.99,-24.41
102965,0.11,0.10,1.00,2.14,-2.93,-23.80
102981,0.10,0.09,1.00,1.59,-2.75,-23.13
102997,0.07,0.05,1.00,0.73,-2.62,-21.12
103013,0.09,0.02,1.00,0.61,-2.38,-22.71
103029,0.09,0.04,1.00,0.00,-3.05,-25.21
103045,0.09,0.06,1.00,-0.92,-3.17,-30.88
103061,0.09,0.07,1.00,-0.49,-2.87,-35.34
103077,0.09,0.08,1.01,2.62,-2.69,-35.52
103093,0.07,0.10,1.00,-1.34,-2.62,-33.26
103109,0.05,0.12,1.00,0.85,-1.59,-27.59
103125,0.04,0.11,1.00,1.83,-1.46,-26.00
103141,0.03,0.12,1.00,1.34,-2.75,-23.99
103157,-0.00,0.13,1.00,0.12,-2.56,-26.18
103173,-0.00,0.15,1.00,0.92,-2.50,-27.22
103189,0.01,0.16,1.00,0.55,-2.20,-26.86
103205,0.02,0.17,1.00,1.53,-2.08,-22.09
103221,0.01,0.15,1.00,1.28,-2.14,-19.53
103237,-0.02,0.08,1.00,0.06,-2.56,-15.14
103253,-0.04,0.07,1.00,1.40,-2.75,-13.00
103269,-0.05,0.07,1.01,0.49,-2.38,-12.88
103285,-0.06,0.07,1.00,1.34,-2.87,-14.34
103301,-0.06,0.11,1.00,2.56,-2.32,-17.40
103317,-0.06,0.14,1.00,2.87,-1.83,-17.82
103333,-0.12,0.14,1.00,2.20,-1.53,-15.87
103349,-0.13,0.10,1.00,2.08,-1.28,-9.64
103365,-0.09,0.11,1.00,1.95,-1.65,-8.30
103381,-0.08,0.10,1.00,2.44,-1.83,-7.87
103397,-0.09,0.05,1.01,2.14,-2.14,-6.04
103413,-0.08,0.06,1.00,2.38,-2.14,-5.86
103429,-0.11,-0.00,1.00,-0.31,-2.38,-7.69
103445,-0.10,0.01,1.00,0.61,-2.38,-9.34
103461,-0.09,0.01,1.01,0.43,-2.14,-8.67
103477,-0.09,0.05,1.00,2.38,-2.26,-3.48
103493,-0.11,0.02,1.00,1.59,-2.26,4.88
103509,-0.12,0.02,1.00,2.08,-2.26,6.71
103525,-0.12,0.02,1.01,0.43,-2.08,9.40
103541,-0.15,0.04,1.00,0.24,-1.83,12.76
103557,-0.15,0.03,1.00,0.18,-2.01,14.47
103573,-0.16,-0.01,1.00,0.24,-1.53,19.47
103589,-0.15,-0.02,1.00,2.32,-0.92,23.25
103605,-0.14,-0.03,1.00,3.30,-0.55,24.23
103621,-0.11,-0.07,1.01,2.81,-1.04,25.33
103637,-0.09,-0.08,1.00,0.18,-1.65,23.86
103653,-0.08,-0.08,1.01,-0.31,-1.22,23.38
103669,-0.09,-0.08,1.02,-0.67,-1.40,22.46
103685,-0.09,-0.09,1.00,-0.85,-1.53,22.22
103701,-0.09,-0.09,1.00,0.43,-1.46,22.64
103717,-0.11,-0.10,1.00,3.78,-1.28,26.00
103733,-0.08,-0.16,1.01,2.87,-0.55,29.42
103749,-0.07,-0.19,1.01,2.44,-0.31,29.79
103765,-0.02,-0.19,1.01,1.10,-1.16,25.51
103781,-0.03,-0.20,1.00,0.00,-2.01,20.87
103797,0.01,-0.20,1.01,0.92,-1.46,19.65
103813,-0.01,-0.19,1.00,3.17,-1.28,17.52
103829,0.01,-0.20,1.01,0.73,-1.10,17.64
103845,0.06,-0.21,1.00,1.34,-1.22,15.93
103861,0.15,-0.19,1.01,0.73,-1.40,13.00
103877,0.14,-0.19,1.01,0.61,-1.46,7.75
103893,0.08,-0.15,1.00,1.34,-1.59,3.85
103909,0.03,-0.13,1.00,1.40,-1.83,0.37
103925,0.03,-0.13,1.00,1.16,-1.83,0.43
103941,0.08,-0.12,1.01,3.42,-1.65,1.10
103957,0.14,-0.09,1.00,4.82,-1.83,0.43
103973,0.16,-0.09,1.00,3.85,-1.71,0.43
103989,0.14,-0.09,1.01,2.62,-1.77,2.99
104005,0.10,-0.10,1.00,1.89,-1.59,1.89
104021,0.09,-0.09,1.00,1.77,-1.77,-0.31
104037,0.12,-0.05,1.00,3.17,-1.71,-3.97
104053,0.16,-0.02,1.00,4.39,-2.38,-6.35
104069,0.18,-0.01,1.01,2.87,-2.32,-8.30
104085,0.15,0.01,1.01,1.89,-2.20,-11.17
104101,0.12,0.01,1.00,0.61,-2.38,-15.32
104117,0.13,0.02,1.00,3.30,-2.26,-16.36
104133,0.14,0.04,1.00,2.50,-2.56,-19.84
104149,0.12,0.06,1.00,1.53,-2.56,-21.85
104165,0.11,0.08,1.00,2.32,-2.62,-23.86
104181,0.11,0.12,1.00,-0.67,-3.17,-29.24
104197,0.10,0.12,1.01,0.79,-3.11,-28.69
104213,0.08,0.10,1.00,0.31,-2.81,-27.95
104229,0.07,0.09,1.00,1.34,-2.26,-27.28
104245,0.08,0.08,1.00,1.16,-2.87,-29.60
104261,0.08,0.07,1.00,0.73,-3.17,-31.13
104277,0.07,0.09,1.00,1.53,-2.87,-34.73
104293,0.07,0.10,1.00,1.10,-2.75,-37.35
104309,0.06,0.10,1.00,0.00,-2.56,-37.11
104325,0.00,0.10,1.01,1.22,-2.32,-36.87
104341,0.01,0.13,1.00,2.44,-2.56,-37.48
104357,0.00,0.15,1.00,2.38,-2.32,-36.25
104373,-0.01,0.15,1.00,0.24,-2.44,-32.35
104389,-0.04,0.12,1.00,1.83,-2.26,-29.30
104405,-0.01,0.12,1.00,1.34,-1.95,-29.42
104421,-0.04,0.14,1.00,1.22,-1.89,-31.92
104437,-0.05,0.16,1.00,1.65,-2.08,-31.13
104453,-0.05,0.15,1.00,2.38,-1.95,-29.05
104469,-0.04,0.16,1.00,2.20,-2.01,-24.84
104485,-0.08,0.15,1.00,1.04,-2.32,-22.16
104501,-0.08,0.15,1.00,0.61,-2.20,-20.02
104517,-0.08,0.11,1.00,2.14,-2.20,-15.20
104533,-0.05,0.08,1.00,3.05,-2.44,-12.76
104549,-0.04,0.08,1.00,3.23,-2.38,-12.39
104565,-0.05,0.06,1.00,2.99,-2.38,-12.15
104581,-0.04,0.05,1.00,1.59,-1.89,-10.86
104597,-0.03,0.05,1.00,0.79,-1.89,-9.77
104613,-0.06,0.02,1.00,1.16,-1.65,-6.84
104629,-0.08,0.03,1.00,0.31,-1.95,-2.99
104645,-0.11,0.03,1.00,0.31,-1.95,-2.38
104661,-0.11,0.06,1.00,1.59,-1.95,-1.40
104677,-0.11,0.00,1.00,1.71,-2.08,2.81
104693,-0.09,0.00,1.00,1.59,-2.14,4.39
104709,-0.10,0.03,1.00,1.40,-2.20,3.97
104725,-0.13,0.06,1.01,1.22,-1.89,6.65
104741,-0.13,0.05,1.01,-0.24,-2.44,10.07
104757,-0.16,0.02,1.00,1.71,-2.20,18.68
104773,-0.15,-0.02,1.00,1.77,-1.89,25.39
104789,-0.15,-0.03,1.01,3.17,-1.53,26.61
104805,-0.13,-0.04,1.00,1.34,-1.34,27.83
104821,-0.11,-0.04,1.00,-0.43,-1.34,28.38
104837,-0.11,-0.04,1.00,-0.49,-1.53,30.70
104853,-0.11,-0.06,1.01,-0.43,-1.22,34.18
104869,-0.11,-0.09,1.00,0.55,-1.28,38.27
104885,-0.06,-0.14,1.01,1.89,-1.53,39.43
104901,-0.07,-0.18,1.01,-0.79,-0.98,38.82
104917,-0.05,-0.19,1.00,0.67,-0.85,36.93
104933,-0.05,-0.21,1.01,1.89,-1.53,36.56
104949,-0.04,-0.21,1.00,1.77,-0.92,34.30
104965,-0.01,-0.21,1.01,1.40,-1.04,30.21
104981,-0.02,-0.19,1.01,1.22,-1.65,27.65
104997,-0.01,-0.16,1.01,2.08,-1.71,24.54
105013,0.00,-0.15,1.00,1.89,-1.16,23.74
105029,0.02,-0.15,1.00,2.62,-1.28,24.84
105045,0.04,-0.18,1.01,3.11,-1.40,25.21
105061,0.02,-0.20,1.01,1.16,-1.28,23.74
105077,0.05,-0.21,1.01,1.40,-1.16,19.47
105093,0.08,-0.19,1.01,1.34,-1.34,15.56
105109,0.08,-0.18,1.01,1.28,-1.40,14.28
105125,0.12,-0.16,1.00,1.22,-1.46,10.86
105141,0.09,-0.15,1.01,1.59,-1.83,6.04
105157,0.13,-0.13,1.00,1.71,-2.20,3.36
105173,0.15,-0.07,1.00,3.23,-2.38,-1.16
105189,0.11,-0.07,1.01,1.10,-1.83,-2.69
105205,0.10,-0.06,1.01,1.04,-1.53,-2.62
105221,0.10,-0.08,1.01,2.56,-1.59,-4.09
105237,0.17,-0.01,1.00,3.36,-1.71,-6.04
105253,0.18,0.00,1.00,3.91,-1.71,-6.65
105269,0.15,-0.01,1.00,1.46,-2.20,-5.25
105285,0.13,-0.04,1.00,3.60,-2.32,-5.80
105301,0.12,-0.02,1.01,4.46,-2.38,-8.79
105317,0.15,0.01,1.00,2.08,-1.89,-15.75
105333,0.16,0.04,0.99,-4.27,-2.01,-17.27
105349,0.15,0.01,1.00,-0.55,-2.62,-15.93
105365,0.15,0.02,1.00,4.21,-2.62,-22.52
105381,0.11,0.08,1.01,5.74,-2.32,-30.03
105397,0.08,0.12,1.01,3.42,-2.56,-32.17
105413,0.07,0.15,1.00,0.98,-3.05,-30.46
105429,0.04,0.13,1.01,1.83,-2.56,-24.66
105445,0.03,0.11,1.00,2.38,-2.44,-23.80
105461,0.04,0.11,1.00,0.92,-2.69,-24.48
105477,0.05,0.10,1.00,0.31,-2.44,-23.32
105493,0.05,0.10,1.00,1.59,-2.81,-23.50
105509,0.07,0.10,1.00,0.37,-3.30,-25.15
105525,0.05,0.13,1.01,0.43,-3.11,-24.78
105541,0.02,0.12,1.00,0.31,-3.11,-24.84
105557,-0.00,0.15,1.00,-0.43,-2.69,-23.62
105573,-0.01,0.16,1.00,0.98,-2.87,-19.23
105589,-0.01,0.15,1.00,0.55,-2.01,-16.66
105605,-0.00,0.13,1.00,-0.43,-2.08,-12.82
105621,0.01,0.11,1.00,1.28,-1.59,-11.78
105637,0.02,0.11,1.00,2.01,-2.08,-12.08
105653,-0.01,0.10,1.00,0.61,-1.83,-12.45
105669,-0.06,0.10,1.00,0.37,-1.89,-10.74
105685,-0.06,0.09,1.00,0.55,-1.65,-9.03
105701,-0.05,0.08,1.00,1.53,-1.71,-6.71
105717,-0.01,0.08,1.00,2.38,-1.83,-4.82
105733,-0.01,0.08,1.00,1.71,-1.65,-3.54
105749,-0.04,0.05,1.00,2.38,-2.08,-1.71
105765,-0.08,0.01,1.00,2.62,-2.26,-2.75
105781,-0.08,0.01,1.00,2.56,-2.44,-3.30
105797,-0.06,0.06,1.00,1.34,-2.14,-5.19
105813,-0.05,0.12,1.00,2.14,-1.46,-3.66
105829,-0.05,0.15,1.00,2.08,-1.34,-0.73
105845,-0.05,0.15,1.00,1.83,-1.22,7.45
105861,-0.12,0.10,1.01,3.23,-1.34,15.75
105877,-0.13,0.04,1.01,2.38,-1.83,19.41
105893,-0.12,-0.03,1.01,1.77,-2.14,23.07
105909,-0.11,-0.04,1.01,0.98,-2.08,19.96
105925,-0.10,-0.02,1.00,1.22,-2.20,18.49
105941,-0.12,0.00,1.00,1.71,-2.01,16.72
105957,-0.14,0.01,1.00,1.83,-1.53,16.91
105973,-0.15,0.04,1.00,2.20,-1.53,18.07
105989,-0.14,0.06,1.00,2.87,-1.83,20.63
106005,-0.16,0.04,1.01,2.44,-2.01,23.86
106021,-0.18,-0.02,1.00,2.26,-2.01,27.47
106037,-0.16,-0.04,1.00,2.20,-1.40,31.92
106053,-0.15,-0.05,1.00,1.89,-1.40,31.31
106069,-0.14,-0.04,1.00,2.08,-0.98,30.03
106085,-0.12,-0.02,1.00,0.49,-1.40,31.92
106101,-0.11,-0.01,1.00,-0.06,-1.04,33.02
106117,-0.11,-0.04,1.00,-0.85,-1.77,35.52
106133,-0.11,-0.13,1.02,-0.43,-1.28,38.15
106149,-0.10,-0.15,1.01,0.85,-0.85,37.41
106165,-0.09,-0.18,1.01,2.32,-0.49,34.00
106181,-0.05,-0.19,1.01,2.93,-1.34,28.26
106197,-0.01,-0.17,1.01,1.83,-0.61,26.43
106213,-0.00,-0.17,1.01,-0.92,-0.85,24.48
106229,0.02,-0.18,1.00,-1.28,-1.89,23.44
106245,0.00,-0.19,1.00,0.06,-1.46,22.58
106261,-0.03,-0.18,1.01,3.30,-1.04,22.03
106277,0.03,-0.17,1.01,2.99,-1.16,22.09
106293,0.04,-0.18,1.01,1.46,-0.79,20.63
106309,0.09,-0.19,1.00,0.12,-1.65,18.98
106325,0.09,-0.19,1.01,-0.12,-1.59,16.54
106341,0.08,-0.15,1.01,1.34,-1.77,14.10
106357,0.03,-0.13,1.01,-0.49,-1.59,11.72
106373,0.06,-0.14,1.01,2.56,-2.20,11.84
106389,0.09,-0.14,1.01,3.54,-2.14,10.86
106405,0.11,-0.14,1.00,1.46,-1.95,9.70
106421,0.10,-0.15,1.01,1.65,-1.10,8.18
106437,0.07,-0.16,1.01,2.26,-1.59,6.90
106453,0.06,-0.13,1.00,4.64,-1.83,3.30
106469,0.13,-0.08,1.01,4.52,-1.34,-1.10
106485,0.12,-0.05,1.01,6.47,-1.53,-0.85
106501,0.11,-0.06,1.01,3.97,-1.65,-0.31
106517,0.10,-0.09,1.00,3.66,-2.20,-1.59
106533,0.11,-0.07,1.01,3.85,-2.44,-3.36
106549,0.14,-0.02,1.01,2.44,-2.50,-6.59
106565,0.19,0.05,1.01,-2.14,-1.95,-9.95
106581,0.16,0.03,1.00,2.08,-2.20,-9.28
106597,0.15,0.05,1.00,1.83,-2.62,-16.05
106613,0.17,0.03,1.00,2.14,-2.32,-21.48
106629,0.18,0.06,1.00,2.08,-1.95,-24.60
106645,0.21,0.11,1.00,2.01,-1.89,-31.19
106661,0.19,0.12,1.00,-1.16,-2.26,-31.68
106677,0.16,0.11,1.00,0.43,-2.87,-30.82
106693,0.12,0.10,1.00,1.77,-3.30,-30.76
106709,0.07,0.09,1.00,0.55,-3.05,-30.70
106725,0.05,0.11,1.00,0.37,-2.81,-31.49
106741,0.05,0.12,1.00,0.67,-3.17,-32.04
106757,0.06,0.15,1.00,1.34,-3.17,-31.19
106773,0.06,0.15,1.00,1.53,-3.17,-30.46
106789,0.04,0.16,1.00,3.91,-3.17,-28.75
106805,0.02,0.16,1.00,2.01,-2.32,-25.82
106821,0.02,0.17,1.00,1.71,-1.89,-24.11
106837,0.04,0.18,0.99,0.98,-2.62,-20.14
106853,0.04,0.15,1.00,0.55,-2.56,-16.85
106869,0.03,0.12,1.00,0.43,-3.11,-15.38
106885,-0.03,0.09,1.00,0.98,-2.56,-13.92
106901,-0.08,0.08,1.00,2.14,-2.01,-15.99
106917,-0.06,0.10,1.00,1.40,-1.95,-17.21
106933,-0.06,0.13,1.00,1.46,-1.95,-16.66
106949,-0.05,0.14,1.00,0.61,-1.77,-13.49
106965,-0.06,0.17,1.00,1.53,-1.53,-11.90
106981,-0.07,0.15,1.00,2.50,-1.83,-7.87
106997,-0.07,0.13,1.00,0.67,-2.08,-4.21
107013,-0.07,0.10,1.00,0.79,-2.32,-2.50
107029,-0.06,0.08,1.00,0.73,-2.14,-0.98
107045,-0.09,0.07,1.00,2.20,-2.26,-0.18
107061,-0.11,0.07,1.00,1.34,-2.38,1.16
107077,-0.08,0.09,1.00,2.81,-2.14,2.62
107093,-0.07,0.12,1.00,3.42,-1.95,6.23
107109,-0.06,0.12,1.00,2.14,-1.65,9.52
107125,-0.05,0.09,1.00,-0.12,-1.40,18.55
107141,-0.06,0.06,1.00,-0.31,-1.34,22.40
107157,-0.09,-0.00,1.01,-0.55,-1.34,26.61
107173,-0.10,-0.05,1.01,-0.55,-2.01,28.87
107189,-0.10,-0.06,1.01,0.49,-2.01,27.77
107205,-0.09,-0.03,1.01,1.22,-1.71,24.23
107221,-0.11,0.06,1.00,1.22,-1.65,24.54
107237,-0.11,0.08,1.00,1.65,-1.40,27.77
107253,-0.13,0.08,1.00,3.54,-1.40,36.13
107269,-0.15,-0.00,1.00,2.69,-2.08,44.68
107285,-0.17,-0.05,1.00,2.69,-1.71,47.79
107301,-0.17,-0.17,1.00,2.01,-0.98,48.10
107317,-0.14,-0.16,1.00,2.08,-0.98,36.93
107333,-0.14,-0.12,1.00,3.23,-0.98,32.29
107349,-0.13,-0.07,1.01,2.62,-0.79,27.22
107365,-0.12,-0.07,1.01,-0.43,-1.40,28.50
107381,-0.12,-0.06,1.00,-0.67,-1.34,30.94
107397,-0.10,-0.09,1.00,-0.37,-1.53,33.26
107413,-0.09,-0.15,1.01,0.24,-1.53,32.78
107429,-0.07,-0.17,1.00,0.18,-1.46,31.74
107445,-0.05,-0.18,1.01,3.11,-0.43,25.88
107461,-0.02,-0.18,1.00,1.16,-1.16,21.67
107477,0.00,-0.18,1.01,-0.12,-0.92,21.12
107493,-0.02,-0.16,1.01,-0.37,-1.83,18.92
107509,-0.01,-0.15,1.00,0.37,-1.71,16.11
107525,0.00,-0.14,1.00,0.67,-1.34,15.63
107541,-0.02,-0.15,1.01,0.98,-2.01,16.30
107557,0.02,-0.17,1.00,1.95,-1.28,17.09
107573,0.01,-0.16,1.00,3.11,-1.28,15.26
107589,0.03,-0.12,1.01,0.55,-1.04,11.11
107605,0.05,-0.11,1.00,1.40,-1.04,8.48
107621,0.05,-0.10,1.00,3.11,-0.61,6.59
107637,0.07,-0.08,1.00,1.22,-1.40,6.16
107653,0.12,-0.09,1.00,1.22,-1.28,6.10
107669,0.12,-0.08,1.00,3.36,-1.65,5.13
107685,0.12,-0.06,1.00,3.54,-1.34,2.99
107701,0.13,-0.05,1.00,0.85,-1.53,2.26
107717,0.13,-0.02,1.00,0.18,-1.77,2.08
107733,0.12,-0.02,1.01,2.44,-1.53,1.53
107749,0.12,-0.03,1.00,2.75,-2.01,1.77
107765,0.11,-0.03,1.00,3.48,-1.95,1.28
107781,0.10,-0.05,1.00,4.94,-2.08,-0.12
107797,0.08,-0.04,1.01,4.39,-2.08,-3.05
107813,0.08,-0.03,1.01,3.05,-1.89,-4.88
107829,0.10,0.01,1.00,-0.79,-1.77,-10.07
107845,0.11,0.05,1.00,-4.33,-1.71,-13.37
107861,0.11,0.04,0.99,-4.58,-1.71,-12.51
107877,0.11,0.05,1.00,3.54,-2.14,-12.21
107893,0.12,0.03,1.00,8.61,-2.56,-13.67
107909,0.13,0.04,1.01,7.45,-2.56,-15.20
107925,0.12,0.06,1.01,4.21,-2.69,-15.93
107941,0.11,0.04,1.00,0.79,-2.81,-18.62
107957,0.11,0.05,1.00,0.73,-2.69,-20.45
107973,0.11,0.06,1.00,-0.43,-2.62,-21.48
107989,0.09,0.06,1.00,-1.34,-2.99,-19.47
108005,0.07,0.04,1.00,-0.43,-2.75,-20.02
108021,0.08,0.03,1.00,1.59,-2.32,-23.86
108037,0.09,0.04,1.01,0.43,-2.56,-25.21
108053,0.12,0.04,1.01,-0.31,-2.93,-25.70
108069,0.09,0.05,1.00,-0.37,-2.87,-28.63
108085,0.10,0.06,1.00,0.49,-3.36,-30.64
108101,0.05,0.06,1.00,-0.73,-3.05,-30.27
108117,0.01,0.03,1.00,0.37,-2.87,-29.36
108133,-0.02,0.05,1.01,1.16,-2.32,-29.30
108149,0.01,0.12,1.00,3.42,-1.89,-29.97
108165,0.02,0.18,1.00,2.44,-1.95,-28.14
108181,0.01,0.18,0.99,0.85,-2.01,-26.67
108197,-0.00,0.18,1.00,2.26,-1.59,-24.11
108213,-0.04,0.16,1.00,2.20,-2.26,-18.74
108229,-0.06,0.14,1.00,1.59,-1.89,-16.48
108245,-0.05,0.13,1.01,1.46,-1.95,-14.40
108261,-0.04,0.15,1.00,0.85,-1.89,-11.90
108277,-0.07,0.15,1.00,1.40,-1.89,-10.25
108293,-0.08,0.11,1.00,1.10,-1.95,-5.31
108309,-0.08,0.10,1.01,2.32,-2.14,-3.05
108325,-0.07,0.09,1.00,2.69,-1.89,-2.56
108341,-0.06,0.10,1.00,2.44,-2.50,-1.65
108357,-0.07,0.11,0.99,1.53,-1.95,1.95
108373,-0.07,0.09,1.00,-0.49,-1.40,4.94
108389,-0.08,0.05,1.00,-0.37,-1.28,10.62
108405,-0.07,0.02,1.01,-0.55,-1.65,12.82
108421,-0.07,0.03,1.01,0.31,-1.59,12.21
108437,-0.07,0.07,1.00,1.65,-2.32,12.21
108453,-0.09,0.09,1.00,1.71,-2.08,20.26
108469,-0.12,0.07,1.00,1.28,-2.08,25.39
108485,-0.15,0.00,1.01,1.59,-1.71,33.39
108501,-0.19,-0.07,1.01,3.72,-1.71,34.67
108517,-0.19,-0.10,1.00,3.66,-2.01,33.08
108533,-0.18,-0.08,1.01,3.66,-2.14,25.76
108549,-0.19,-0.00,1.01,3.36,-1.46,24.29
108565,-0.22,0.03,1.00,2.56,-1.65,26.79
108581,-0.20,-0.01,1.00,2.62,-1.46,35.52
108597,-0.15,-0.06,1.01,1.16,-0.79,41.08
108613,-0.12,-0.07,1.00,-0.43,-1.16,40.89
108629,-0.11,-0.10,1.00,-3.60,-2.14,39.61
108645,-0.12,-0.11,0.99,-1.53,-1.65,38.64
108661,-0.12,-0.14,1.01,0.98,-1.65,37.90
108677,-0.12,-0.17,1.00,1.04,-1.10,36.56
108693,-0.09,-0.18,1.00,5.31,-0.24,34.55
108709,-0.05,-0.18,1.01,4.52,-0.37,34.12
108725,-0.02,-0.19,1.01,1.22,0.12,31.49
108741,0.01,-0.20,1.01,0.43,-2.81,25.88
108757,0.02,-0.19,1.01,0.67,-1.65,22.83
108773,0.02,-0.16,1.01,2.87,-1.10,19.90
108789,0.01,-0.19,1.00,3.36,-0.67,21.12
108805,0.02,-0.20,1.01,3.78,-0.55,21.24
108821,0.06,-0.19,1.01,1.95,-1.22,19.23
108837,0.05,-0.17,1.00,1.46,-1.34,13.67
108853,0.05,-0.14,1.01,2.44,-1.22,10.93
108869,0.04,-0.12,1.00,1.28,-1.28,10.07
108885,0.08,-0.13,1.01,2.20,-1.83,10.74
108901,0.09,-0.13,1.00,3.72,-1.77,9.58
108917,0.10,-0.12,1.01,3.11,-1.71,6.77
108933,0.10,-0.10,1.01,2.93,-1.40,3.85
108949,0.10,-0.11,1.01,2.26,-1.59,2.69
108965,0.11,-0.10,1.00,2.32,-1.89,1.53
108981,0.15,-0.06,1.00,1.46,-1.65,-0.37
108997,0.14,-0.06,1.00,3.23,-1.77,-0.37
109013,0.19,-0.04,1.00,2.20,-2.08,-0.49
109029,0.18,-0.05,1.00,4.27,-2.38,-1.53
109045,0.18,-0.06,1.01,3.60,-2.32,-2.32
109061,0.19,-0.08,1.00,0.98,-2.32,-4.82
109077,0.19,-0.09,1.00,1.95,-2.14,-11.78
109093,0.18,-0.02,1.02,1.40,-1.77,-16.48
109109,0.18,0.00,1.00,4.88,-2.32,-18.25
109125,0.17,0.01,1.01,-0.49,-2.62,-19.41
109141,0.16,-0.01,1.00,-2.20,-2.87,-21.24
109157,0.14,0.04,1.00,-0.92,-2.38,-27.65
109173,0.13,0.08,1.00,-1.22,-3.05,-29.79
109189,0.09,0.13,1.01,-0.18,-3.05,-28.81
109205,0.10,0.16,1.00,1.40,-3.17,-25.27
109221,0.09,0.16,1.00,1.22,-2.69,-24.17
109237,0.08,0.17,1.00,0.55,-3.05,-21.42
109253,0.07,0.20,1.00,0.12,-2.87,-24.05
109269,0.08,0.22,1.00,1.40,-2.50,-25.33
109285,0.04,0.27,1.00,3.66,-2.32,-25.70
109301,-0.01,0.26,1.00,4.03,-2.62,-20.75
109317,-0.04,0.24,1.01,2.87,-2.38,-15.75
109333,-0.04,0.18,1.00,-0.37,-2.87,-7.51
109349,-0.03,0.13,1.00,0.92,-1.53,-8.97
109365,-0.03,0.14,1.00,0.37,-1.65,-13.24
109381,-0.01,0.20,1.00,1.59,-1.83,-17.70
109397,-0.01,0.21,0.99,1.53,-2.08,-16.54
109413,-0.05,0.18,1.00,2.87,-1.71,-14.04
109429,-0.07,0.09,1.00,3.48,-1.40,-7.14
109445,-0.07,0.03,1.01,1.10,-1.59,-4.70
109461,-0.07,0.03,1.00,0.43,-1.89,-5.43
109477,-0.07,0.06,1.00,-0.61,-2.38,-7.63
109493,-0.05,0.10,1.00,1.16,-2.50,-5.98
109509,-0.07,0.10,1.00,3.11,-2.14,-4.82
109525,-0.07,0.07,1.01,5.25,-2.26,-2.08
109541,-0.08,0.03,1.00,3.78,-1.83,3.60
109557,-0.06,0.04,1.00,1.59,-1.65,7.63
109573,-0.04,0.05,1.00,2.20,-0.79,10.80
109589,-0.03,0.06,1.00,2.99,-0.98,11.17
109605,-0.05,0.06,1.00,3.23,-1.10,12.63
109621,-0.08,0.06,1.00,2.01,-1.40,18.31
109637,-0.09,0.03,1.00,1.71,-1.46,26.31
109653,-0.09,0.01,1.00,0.79,-1.46,28.87
109669,-0.12,-0.03,1.01,1.40,-1.65,29.60
109685,-0.13,-0.07,1.01,2.26,-1.59,27.22
109701,-0.14,-0.06,1.01,2.08,-1.89,25.70
109717,-0.17,-0.02,1.00,-0.67,-2.01,22.46
109733,-0.20,0.01,1.00,0.73,-1.89,19.10
109749,-0.19,0.01,1.00,0.98,-1.77,18.74
109765,-0.18,0.02,1.00,2.62,-1.77,21.55
109781,-0.17,0.01,1.00,2.56,-0.85,25.76
109797,-0.18,0.00,1.00,1.40,-0.79,28.20
109813,-0.16,0.00,1.01,-0.43,-1.71,32.17
109829,-0.15,-0.01,1.01,-1.83,-1.28,34.73
109845,-0.15,-0.01,1.00,0.31,-1.59,35.83
109861,-0.17,-0.06,1.00,-1.34,-0.98,38.51
109877,-0.17,-0.08,1.01,1.77,-1.10,39.18
109893,-0.14,-0.11,1.01,1.22,-0.79,41.02
109909,-0.10,-0.24,1.00,-0.31,-0.43,41.69
109925,-0.05,-0.30,1.00,-2.62,-1.46,33.39
109941,-0.04,-0.30,1.01,-2.01,-1.77,26.49
109957,-0.04,-0.26,1.01,1.16,-2.08,15.93
109973,0.01,-0.25,1.01,2.44,-1.22,12.27
109989,0.05,-0.24,1.01,1.95,-1.40,12.39
110005,0.09,-0.26,1.00,0.98,-1.10,10.38