time,accel_x,accel_y,accel_z,gyro_x,gyro_y,gyro_z
100022,0.01,0.00,1.00,1.59,-1.89,2.20
100037,0.01,0.01,1.00,1.59,-1.95,2.08
100053,0.01,0.01,1.00,1.59,-1.95,2.14
100069,0.01,0.01,1.00,1.59,-1.83,2.14
100085,0.01,0.01,1.00,1.65,-1.89,2.08
100101,0.01,0.01,1.00,1.59,-1.89,2.20
100117,0.00,0.01,1.00,1.65,-1.83,2.20
100133,0.01,0.01,1.00,1.59,-1.89,2.14
100149,0.01,0.01,1.00,1.65,-1.95,2.08
100165,0.01,0.01,1.00,1.65,-1.89,2.08
100181,0.01,0.01,1.00,1.59,-1.89,2.14
100197,0.01,0.01,1.00,1.59,-1.95,2.08
100213,0.01,0.01,1.00,1.59,-1.89,2.14
100229,0.01,0.01,1.00,1.65,-1.95,2.14
100245,0.01,0.01,1.00,1.65,-1.89,2.14
100261,0.01,0.00,1.00,1.59,-1.89,2.20
100277,0.01,0.01,1.00,1.59,-1.89,2.08
100293,0.01,0.01,1.00,1.59,-1.89,2.14
100309,0.01,0.01,1.00,1.65,-1.83,2.14
100325,0.01,0.01,1.00,1.53,-1.95,2.14
100341,0.01,0.01,1.00,1.59,-1.89,2.08
100357,0.01,0.01,1.00,1.59,-1.89,2.14
100373,0.01,0.01,1.00,1.65,-1.89,2.08
100389,0.01,0.01,1.00,1.59,-1.89,2.14
100405,0.01,0.01,1.00,1.59,-1.89,2.14
100421,0.01,0.01,1.00,1.59,-1.89,2.20
100437,0.01,0.00,1.00,1.59,-1.89,2.14
100453,0.01,0.01,1.00,1.59,-1.95,2.08
100469,0.01,0.01,1.00,1.59,-1.89,2.14
100485,0.01,0.01,1.00,1.65,-1.95,2.14
100501,0.01,0.01,1.00,1.59,-1.89,2.20
100517,0.01,0.01,1.00,1.59,-1.83,2.08
100533,0.01,0.00,1.00,1.59,-1.83,2.08
100549,0.01,0.01,1.00,1.65,-1.83,2.08
100565,0.01,0.00,1.00,1.65,-1.89,2.14
100581,0.01,0.01,1.00,1.71,-1.95,2.14
100597,0.01,0.01,1.00,1.65,-1.89,2.20
100613,0.01,0.01,1.00,1.71,-1.89,2.14
100629,0.01,0.01,1.00,1.65,-1.89,2.08
100645,0.01,0.01,1.00,1.59,-1.83,2.14
100661,0.01,0.01,1.00,1.59,-1.89,2.14
100677,0.01,0.01,1.00,1.59,-1.89,2.14
100693,0.01,0.00,1.00,1.59,-1.95,2.14
100709,0.00,0.01,1.00,1.65,-1.89,2.14
100725,0.01,0.01,1.00,1.65,-1.89,2.14
100741,0.01,0.01,1.00,1.65,-1.89,2.08
100757,0.01,0.01,1.00,1.59,-1.89,2.20
100773,0.01,0.01,1.00,1.53,-1.89,2.08
100789,0.01,0.01,1.00,1.65,-1.89,2.20
100805,0.01,0.01,1.00,1.59,-1.95,2.14
100821,0.01,0.01,1.00,1.59,-1.95,2.14
100837,0.01,0.01,1.00,1.65,-1.89,2.14
100853,0.01,0.01,1.00,1.65,-1.83,2.14
100869,0.01,0.01,1.00,1.65,-1.95,2.14
100885,0.01,0.01,1.00,1.65,-1.83,2.14
100901,0.01,0.01,1.00,1.65,-1.83,2.20
100917,0.01,0.01,1.00,1.65,-1.83,2.20
100933,0.01,0.01,1.00,1.59,-1.83,2.14
100949,0.01,0.01,1.00,1.65,-1.89,2.14
100965,0.01,0.01,1.00,1.59,-1.95,2.14
100981,0.01,0.01,1.00,1.65,-1.89,2.14
100997,0.01,0.01,1.00,1.59,-1.89,2.14
101013,0.01,0.01,1.00,1.65,-1.83,2.20
101029,0.01,0.01,1.00,1.59,-1.89,2.14
101045,0.01,0.01,1.00,1.65,-1.89,2.14
101061,0.01,0.01,1.00,1.59,-1.89,2.14
101077,0.01,0.01,1.00,1.59,-1.95,2.14
101093,0.01,0.01,1.00,1.71,-1.95,2.14
101109,0.01,0.01,1.00,1.59,-1.89,2.14
101125,0.01,0.01,1.00,1.59,-1.89,2.14
101141,0.01,0.01,1.00,1.59,-1.89,2.14
101157,0.01,0.01,1.00,1.65,-1.89,2.08
101173,0.01,0.01,1.00,1.65,-1.89,2.08
101189,0.01,0.01,1.00,1.65,-1.89,2.20
101205,0.01,0.01,1.00,1.59,-1.83,2.14
101221,0.01,0.01,1.00,1.59,-1.89,2.14
101237,0.01,0.01,1.00,1.65,-1.89,2.14
101253,0.01,0.01,1.00,1.59,-1.89,2.20
101269,0.01,0.01,1.00,1.65,-1.89,2.14
101285,0.01,0.01,1.00,1.59,-1.89,2.26
101301,0.00,0.01,1.00,1.65,-1.95,2.14
101317,0.01,0.01,1.00,1.59,-1.83,2.14
101333,0.01,0.00,1.00,1.59,-1.89,2.14
101349,0.01,0.01,1.00,1.59,-1.89,2.14
101365,0.01,0.01,1.00,1.65,-1.89,2.20
101381,0.01,0.01,1.00,1.65,-1.95,2.14
101397,0.01,0.01,1.00,1.65,-1.89,2.14
101413,0.01,0.01,1.00,1.65,-1.89,2.14
101429,0.01,0.01,1.00,1.65,-1.89,2.14
101445,0.01,0.01,1.00,1.59,-1.83,2.14
101461,0.01,0.01,1.00,1.59,-1.83,2.14
101477,0.01,0.00,1.00,1.65,-1.89,2.20
101493,0.01,0.01,1.00,1.59,-1.89,2.14
101509,0.01,0.01,1.00,1.59,-1.89,2.14
101525,0.01,0.01,1.00,1.59,-1.95,2.14
101541,0.01,0.01,1.00,1.65,-1.83,2.14
101557,0.01,0.01,1.00,1.53,-1.89,2.20
101573,0.01,0.01,1.00,1.59,-1.95,2.14
101589,0.01,0.01,1.00,1.65,-1.89,2.08
101605,0.00,0.01,1.00,1.65,-1.83,2.08
101621,0.00,0.01,1.00,1.59,-1.89,2.14
101637,0.01,0.01,1.00,1.65,-1.89,2.08
101653,0.01,0.01,1.00,1.65,-1.83,2.08
101669,0.01,0.01,1.00,1.65,-1.89,2.20
101685,0.01,0.01,1.00,1.65,-1.89,2.14
101701,0.01,0.01,1.00,1.59,-1.83,2.14
101717,0.01,0.01,1.00,1.59,-1.89,2.14
101733,0.01,0.01,1.00,1.65,-1.95,2.14
101749,0.01,0.00,1.00,1.65,-1.89,2.14
101765,0.01,0.01,1.00,1.65,-1.95,2.08
101781,0.01,0.01,1.00,1.59,-1.95,2.08
101797,0.01,0.01,1.00,1.65,-1.89,2.20
101813,0.01,0.01,1.00,1.65,-1.95,2.08
101829,0.01,0.01,1.00,1.65,-1.89,2.14
101845,0.01,0.01,1.00,1.59,-1.95,2.14
101861,0.01,0.01,1.00,1.53,-1.89,2.08
101877,0.01,0.01,1.00,1.65,-1.95,2.14
101893,0.01,0.01,1.00,1.65,-1.95,2.14
101909,0.01,0.01,1.01,1.59,-1.77,2.08
101925,0.01,0.01,1.00,1.65,-1.89,2.08
101941,0.01,0.01,1.00,1.59,-1.89,2.08
101957,0.01,0.01,1.00,1.59,-1.95,2.08
101973,0.01,0.01,1.00,1.59,-1.95,2.08
101989,0.01,0.01,1.00,1.71,-1.95,2.14
102005,0.01,0.01,1.00,1.71,-1.83,2.14
102021,0.01,0.01,1.00,1.65,-1.89,2.20
102037,0.01,0.01,1.00,1.65,-1.89,2.20
102053,0.01,0.00,1.00,1.65,-1.83,2.08
102069,0.01,0.00,1.00,1.65,-1.83,2.14
102085,0.01,0.01,1.00,1.65,-1.89,2.08
102101,0.01,0.01,1.00,1.59,-1.83,2.26
102117,0.01,0.01,1.00,1.59,-1.83,2.14
102133,0.01,0.01,1.00,1.65,-1.89,2.14
102149,0.01,0.01,1.00,1.65,-1.89,2.20
102165,0.01,0.01,1.00,1.65,-1.89,2.14
102181,0.01,0.01,1.00,1.65,-1.83,2.08
102197,0.01,0.01,1.00,1.65,-1.95,2.08
102213,0.01,0.01,1.00,1.65,-1.89,2.20
102229,0.01,0.01,1.00,1.65,-1.95,2.20
102245,0.01,0.01,1.00,1.59,-1.89,2.14
102261,0.01,0.01,1.00,1.65,-1.95,2.14
102277,0.01,0.01,1.00,1.65,-1.83,2.08
102293,0.01,0.01,1.00,1.59,-1.89,2.14
102309,0.01,0.01,1.00,1.59,-1.89,2.14
102325,0.01,0.01,1.00,1.65,-1.89,2.08
102341,0.01,0.01,1.00,1.65,-1.83,2.14
102357,0.00,0.01,1.00,1.65,-1.83,2.08
102373,0.01,0.01,1.00,1.65,-1.95,2.14
102389,0.01,0.01,1.00,1.65,-1.89,2.14
102405,0.01,0.01,1.00,1.59,-1.95,2.14
102421,0.01,0.01,1.00,1.65,-1.89,2.14
102437,0.01,0.00,1.01,1.65,-1.83,2.14
102453,0.01,0.01,1.00,1.59,-1.83,2.14
102469,0.01,0.01,1.00,1.53,-1.89,2.14
102485,0.01,0.01,1.00,1.65,-1.89,2.20
102501,0.01,0.01,1.00,1.65,-1.89,2.20
102517,0.01,0.01,1.00,1.65,-1.89,2.14
102533,0.01,0.01,1.01,1.59,-1.89,2.08
102549,0.01,0.00,1.00,1.53,-1.89,2.14
102565,0.01,0.00,1.00,1.65,-1.89,2.20
102581,0.01,0.00,1.00,1.65,-1.89,2.08
102597,0.01,0.01,1.00,1.59,-1.89,2.14
102613,0.01,0.01,1.00,1.65,-1.89,2.08
102629,0.01,0.01,1.00,1.59,-1.95,2.08
102645,0.01,0.01,1.00,1.65,-1.89,2.08
102661,0.01,0.01,1.00,1.59,-1.95,2.14
102677,0.01,0.01,1.00,1.71,-1.89,2.08
102693,0.01,0.01,1.00,1.65,-1.89,2.20
102709,0.01,0.00,1.01,1.59,-1.83,2.08
102725,0.01,0.00,1.00,1.65,-1.77,2.20
102741,0.01,0.01,1.00,1.65,-1.89,2.08
102757,0.01,0.01,1.00,1.59,-1.95,2.14
102773,0.01,0.01,1.00,1.65,-1.89,2.14
102789,0.01,0.01,1.00,1.71,-1.89,2.14
102805,0.01,0.01,1.00,1.71,-1.89,2.20
102821,0.01,0.01,1.01,1.65,-1.89,2.14
102837,0.01,0.01,1.00,1.53,-1.83,2.14
102853,0.01,0.00,1.00,1.59,-1.83,2.14
102869,0.01,0.00,1.00,1.59,-1.89,2.14
102885,0.01,0.00,1.00,1.65,-1.95,2.14
102901,0.01,0.01,1.00,1.65,-1.95,2.20
102917,0.01,0.01,1.00,1.59,-1.95,2.20
102933,0.01,0.01,1.00,1.59,-1.89,2.14
102949,0.01,0.01,1.00,1.65,-1.95,2.14
102965,0.01,0.01,1.00,1.59,-1.89,2.14
102981,0.01,0.01,1.00,1.59,-1.95,2.14
102997,0.01,0.00,1.00,1.65,-1.95,2.14
103013,0.01,0.01,1.00,1.65,-1.89,2.20
103029,0.01,0.01,1.00,1.65,-1.89,2.08
103045,0.01,0.01,1.00,1.65,-1.89,2.14
103061,0.01,0.01,1.00,1.65,-1.95,2.14
103077,0.01,0.01,1.00,1.59,-1.89,2.14
103093,0.01,0.01,1.00,1.59,-1.77,2.14
103109,0.00,0.01,1.00,1.65,-1.83,2.14
103125,0.01,0.01,1.00,1.65,-1.83,2.14
103141,0.01,0.01,1.01,1.59,-1.89,2.08
103157,0.01,0.01,1.00,1.59,-1.83,2.08
103173,0.01,0.01,1.00,1.65,-1.89,2.20
103189,0.01,0.01,1.00,1.71,-1.89,2.14
103205,0.01,0.01,1.00,1.65,-1.95,2.14
103221,0.01,0.01,1.00,1.65,-1.89,2.14
103237,0.01,0.01,1.00,1.59,-1.89,2.08
103253,0.01,0.01,1.00,1.65,-1.89,2.14
103269,0.01,0.01,1.00,1.65,-1.95,2.14
103285,0.01,0.01,1.00,1.65,-1.95,2.14
103301,0.01,0.00,1.00,1.59,-1.95,2.14
103317,0.01,0.01,1.00,1.65,-1.89,2.14
103333,0.01,0.01,1.00,1.65,-1.89,2.20
103349,0.01,0.01,1.00,1.59,-1.89,2.20
103365,0.01,0.01,1.00,1.65,-1.89,2.14
103381,0.01,0.01,1.00,1.65,-1.89,2.14
103397,0.01,0.01,1.00,1.65,-1.89,2.08
103413,0.01,0.01,1.00,1.65,-1.89,2.14
103429,0.01,0.01,1.00,1.59,-1.83,2.14
103445,0.01,0.00,1.00,1.59,-1.89,2.14
103461,0.01,0.01,1.00,1.65,-1.89,2.08
103477,0.01,0.01,1.00,1.59,-1.83,2.08
103493,0.01,0.01,1.00,1.53,-1.89,2.14
103509,0.01,0.01,1.00,1.59,-1.89,2.20
103525,0.01,0.01,1.00,1.65,-1.89,2.08
103541,0.01,0.01,1.00,1.59,-1.89,2.08
103557,0.01,0.01,1.00,1.59,-1.89,2.14
103573,0.00,0.01,1.00,1.65,-1.89,2.20
103589,0.01,0.01,1.00,1.59,-1.95,2.14
103605,0.01,0.01,1.00,1.59,-1.95,2.20
103621,0.01,0.01,1.00,1.65,-1.95,2.20
103637,0.01,0.01,1.00,1.65,-1.89,2.14
103653,0.01,0.01,1.00,1.65,-1.83,2.14
103669,0.01,0.01,1.00,1.65,-1.89,2.14
103685,0.01,0.01,1.00,1.71,-1.89,2.14
103701,0.01,0.01,1.00,1.65,-1.89,2.14
103717,0.01,0.01,1.00,1.65,-1.89,2.14
103733,0.01,0.01,1.00,1.65,-1.89,2.20
103749,0.01,0.01,1.00,1.65,-1.89,2.08
103765,0.01,0.01,1.00,1.59,-1.83,2.14
103781,0.01,0.01,1.00,1.59,-1.89,2.20
103797,0.00,0.01,1.00,1.59,-1.83,2.20
103813,0.01,0.01,1.00,1.65,-1.95,2.08
103829,0.01,0.01,1.00,1.59,-1.89,2.14
103845,0.01,0.01,1.00,1.65,-1.89,2.14
103861,0.01,0.01,1.00,1.65,-1.89,2.14
103877,0.01,0.01,1.00,1.59,-1.89,2.08
103893,0.01,0.01,1.00,1.59,-1.83,2.14
103909,0.01,0.01,1.00,1.65,-1.83,2.14
103925,0.01,0.01,1.00,1.65,-1.89,2.14
103941,0.01,0.01,1.00,1.59,-1.83,2.20
103957,0.01,0.01,1.00,1.65,-1.89,2.14
103973,0.01,0.01,1.00,1.71,-1.89,2.14
103989,0.01,0.01,1.00,1.65,-1.89,2.20
104005,0.01,0.01,1.00,1.71,-1.89,2.08
104021,0.01,0.01,1.00,1.65,-1.83,2.14
104037,0.01,0.01,1.00,1.65,-1.89,2.20
104053,0.01,0.01,1.00,1.53,-1.83,2.08
104069,0.01,0.01,1.00,1.59,-1.83,2.20
104085,0.01,0.01,1.00,1.65,-1.95,2.14
104101,0.01,0.01,1.00,1.71,-1.89,2.20
104117,0.01,0.01,1.00,1.59,-1.89,2.08
104133,0.01,0.01,1.00,1.65,-1.83,2.14
104149,0.01,0.00,1.00,1.65,-1.89,2.14
104165,0.01,0.01,1.00,1.65,-1.89,2.08
104181,0.01,0.01,1.00,1.59,-1.83,2.14
104197,0.01,0.01,1.00,1.59,-1.89,2.08
104213,0.01,0.01,1.00,1.59,-1.95,2.08
104229,0.01,0.01,1.00,1.59,-1.83,2.14
104245,0.01,0.01,1.00,1.65,-1.89,2.14
104261,0.01,0.01,1.00,1.59,-1.83,2.14
104277,0.01,0.01,1.00,1.59,-1.89,2.08
104293,0.01,0.01,1.00,1.71,-1.83,2.14
104309,0.01,0.01,1.00,1.65,-1.89,2.14
104325,0.01,0.01,1.00,1.59,-1.89,2.14
104341,0.01,0.01,1.00,1.65,-1.89,2.14
104357,0.01,0.01,1.00,1.65,-1.89,2.20
104373,0.01,0.01,1.00,1.65,-1.89,2.08
104389,0.01,0.01,1.00,1.65,-1.83,2.08
104405,0.01,0.01,1.00,1.65,-1.83,2.14
104421,0.01,0.01,1.00,1.65,-1.89,2.20
104437,0.01,0.01,1.00,1.65,-1.89,2.14
104453,0.01,0.01,1.00,1.65,-1.89,2.14
104469,0.01,0.01,1.00,1.65,-1.95,2.14
104485,0.01,0.01,1.00,1.65,-1.83,2.14
104501,0.01,0.01,1.00,1.65,-1.77,2.14
104517,0.01,0.01,1.00,1.71,-1.95,2.14
104533,0.00,0.01,1.01,1.53,-1.83,2.14
104549,0.00,0.01,1.00,1.53,-1.89,2.14
104565,0.01,0.01,1.00,1.65,-1.89,2.14
104581,0.01,0.01,1.00,1.65,-1.95,2.14
104597,0.01,0.01,1.00,1.65,-1.89,2.14
104613,0.01,0.01,1.00,1.65,-1.89,2.20
104629,0.01,0.01,1.00,1.59,-1.89,2.14
104645,0.01,0.01,1.00,1.65,-1.83,2.08
104661,0.01,0.01,1.00,1.59,-1.89,2.01
104677,0.01,0.01,1.00,1.65,-1.89,2.14
104693,0.01,0.01,1.00,1.59,-1.89,2.14
104709,0.01,0.01,1.01,1.59,-1.89,2.14
104725,0.01,0.01,1.00,1.59,-1.89,2.14
104741,0.01,0.01,1.00,1.65,-1.89,2.14
104757,0.01,0.00,1.00,1.59,-1.89,2.14
104773,0.00,0.01,1.00,1.59,-1.89,2.14
104789,0.00,0.01,1.00,1.59,-1.89,2.20
104805,0.00,0.01,1.00,1.65,-1.89,2.14
104821,0.01,0.01,1.01,1.59,-1.89,2.20
104837,0.01,0.01,1.00,1.65,-1.83,2.14
104853,0.01,0.01,1.00,1.53,-1.83,2.20
104869,0.01,0.01,1.00,1.59,-2.01,2.14
104885,0.01,0.01,1.00,1.65,-1.95,2.14
104901,0.01,0.00,1.00,1.53,-1.89,2.20
104917,0.01,0.00,1.00,1.65,-1.89,2.20
104933,0.01,0.01,1.00,1.65,-1.89,2.14
104949,0.01,0.01,1.01,1.65,-1.95,2.14
104965,0.01,0.01,1.00,1.65,-1.89,2.20
104981,0.01,0.01,1.00,1.59,-1.83,2.14
104997,0.01,0.01,1.00,1.59,-1.83,2.14
105013,0.01,0.01,1.00,1.65,-1.95,2.20
105029,0.01,0.01,1.00,1.65,-1.89,2.14
105045,0.01,0.01,1.00,1.59,-1.89,2.14
105061,0.01,0.00,1.00,1.59,-1.95,2.20
105077,0.01,0.01,1.00,1.59,-1.77,2.14
105093,0.01,0.01,1.00,1.59,-1.89,2.08
105109,0.01,0.01,1.00,1.59,-1.83,2.14
105125,0.01,0.01,1.00,1.59,-1.83,2.08
105141,0.01,0.01,1.00,1.65,-1.89,2.14
105157,0.01,0.01,1.00,1.71,-1.95,2.14
105173,0.01,0.01,1.00,1.59,-1.95,2.14
105189,0.01,0.01,1.00,1.59,-1.89,2.14
105205,0.01,0.01,1.00,1.59,-1.89,2.20
105221,0.01,0.01,1.01,1.59,-1.77,2.14
105237,0.01,0.01,1.00,1.59,-1.89,2.14
105253,0.01,0.01,1.00,1.59,-1.83,2.14
105269,0.01,0.01,1.00,1.59,-1.89,2.14
105285,0.01,0.01,1.00,1.65,-1.89,2.14
105301,0.01,0.01,1.00,1.59,-1.95,2.14
105317,0.00,0.01,1.01,1.65,-1.89,2.08
105333,0.01,0.01,1.00,1.53,-1.89,2.14
105349,0.01,0.01,1.00,1.59,-1.83,2.08
105365,0.01,0.01,1.00,1.65,-1.95,2.14
105381,0.01,0.01,1.00,1.65,-1.89,2.14
105397,0.01,0.01,1.00,1.65,-1.83,2.14
105413,0.01,0.01,1.00,1.59,-1.89,2.14
105429,0.01,0.01,1.00,1.59,-1.89,2.14
105445,0.01,0.01,1.00,1.53,-1.89,2.14
105461,0.01,0.01,1.00,1.65,-1.89,2.08
105477,0.01,0.01,1.00,1.65,-1.83,2.08
105493,0.01,0.01,1.00,1.59,-1.89,2.08
105509,0.01,0.01,1.00,1.59,-1.95,2.14
105525,0.01,0.01,1.00,1.59,-1.83,2.14
105541,0.01,0.01,1.00,1.59,-1.95,2.14
105557,0.01,0.01,1.00,1.65,-1.89,2.14
105573,0.01,0.01,1.00,1.59,-1.89,2.14
105589,0.01,0.01,1.00,1.65,-1.89,2.20
105605,0.01,0.01,1.00,1.65,-1.89,2.08
105621,0.01,0.01,1.00,1.65,-1.83,2.14
105637,0.01,0.01,1.00,1.59,-1.83,2.14
105653,0.01,0.01,1.01,1.59,-1.89,2.14
105669,0.01,0.01,1.00,1.65,-1.83,2.20
105685,0.01,0.01,1.00,1.59,-1.83,2.14
105701,0.01,0.01,1.00,1.65,-1.89,2.14
105717,0.01,0.01,1.00,1.65,-1.83,2.14
105733,0.01,0.01,1.00,1.71,-1.95,2.08
105749,0.01,0.01,1.00,1.65,-1.95,2.14
105765,0.01,0.01,1.00,1.65,-1.89,2.14
105781,0.01,0.01,1.00,1.65,-1.83,2.08
105797,0.01,0.01,1.00,1.65,-1.89,2.20
105813,0.01,0.00,1.00,1.65,-1.83,2.14
105829,0.01,0.01,1.00,1.59,-1.83,2.14
105845,0.00,0.01,1.00,1.65,-1.89,2.14
105861,0.01,0.01,1.00,1.65,-1.95,2.08
105877,0.01,0.01,1.00,1.65,-1.83,2.14
105893,0.01,0.01,1.00,1.59,-1.89,2.20
105909,0.01,0.01,1.00,1.65,-1.89,2.14
105925,0.01,0.01,1.00,1.59,-1.89,2.20
105941,0.01,0.01,1.00,1.65,-1.89,2.14
105957,0.01,0.01,1.00,1.59,-1.83,2.14
105973,0.01,0.01,1.00,1.59,-1.89,2.20
105989,0.01,0.01,1.00,1.53,-1.89,2.14
106005,0.01,0.01,1.00,1.65,-1.95,2.14
106021,0.01,0.01,1.00,1.59,-1.83,2.14
106037,0.01,0.01,1.00,1.59,-1.83,2.14
106053,0.01,0.01,1.00,1.65,-1.83,2.14
106069,0.00,0.01,1.00,1.65,-1.89,2.14
106085,0.01,0.00,1.00,1.59,-1.89,2.20
106101,0.01,0.01,1.01,1.65,-1.89,2.14
106117,0.01,0.01,1.00,1.65,-1.83,2.14
106133,0.01,0.01,1.00,1.65,-1.89,2.14
106149,0.01,0.01,1.00,1.65,-1.89,2.14
106165,0.01,0.01,1.00,1.65,-1.89,2.08
106181,0.01,0.01,1.00,1.59,-1.89,2.14
106197,0.01,0.01,1.00,1.65,-1.83,2.20
106213,0.01,0.01,1.00,1.65,-1.89,2.14
106229,0.01,0.01,1.00,1.59,-1.95,2.08
106245,0.01,0.01,1.00,1.65,-1.89,2.20
106261,0.01,0.01,1.00,1.65,-1.89,2.14
106277,0.01,0.01,1.00,1.53,-1.83,2.14
106293,0.01,0.01,1.00,1.65,-2.01,2.20
106309,0.01,0.01,1.00,1.59,-1.95,2.14
106325,0.01,0.01,1.00,1.59,-1.89,2.14
106341,0.01,0.01,1.00,1.65,-1.95,2.14
106357,0.01,0.01,1.00,1.65,-1.89,2.20
106373,0.01,0.01,1.00,1.53,-1.89,2.14
106389,0.01,0.01,1.00,1.65,-1.89,2.14
106405,0.01,0.01,1.00,1.59,-1.83,2.20
106421,0.01,0.01,1.00,1.65,-1.89,2.20
106437,0.01,0.01,1.00,1.65,-1.95,2.14
106453,0.01,0.01,1.00,1.65,-1.83,2.14
106469,0.01,0.01,1.00,1.65,-1.89,2.14
106485,0.01,0.01,1.00,1.65,-1.89,2.14
106501,0.01,0.01,1.00,1.59,-1.83,2.08
106517,0.01,0.01,1.00,1.59,-1.89,2.14
106533,0.01,0.01,1.00,1.65,-1.89,2.20
106549,0.01,0.01,1.00,1.53,-1.95,2.14
106565,0.01,0.01,1.00,1.59,-1.77,2.20
106581,0.01,0.01,1.00,1.65,-1.89,2.01
106597,0.00,0.01,1.01,1.65,-1.95,2.08
106613,0.01,0.01,1.00,1.65,-1.89,2.08
106629,0.01,0.01,1.00,1.53,-1.89,2.20
106645,0.01,0.01,1.00,1.65,-1.95,2.14
106661,0.01,0.01,1.00,1.65,-1.89,2.14
106677,0.01,0.01,1.00,1.65,-1.89,2.14
106693,0.01,0.01,1.00,1.65,-1.89,2.14
106709,0.01,0.01,1.00,1.65,-1.89,2.14
106725,0.01,0.01,1.00,1.59,-1.83,2.20
106741,0.01,0.01,1.00,1.65,-1.95,2.14
106757,0.01,0.01,1.00,1.65,-1.95,2.20
106773,0.01,0.01,1.00,1.65,-1.89,2.14
106789,0.01,0.01,1.00,1.65,-1.89,2.14
106805,0.01,0.01,1.00,1.59,-1.95,2.14
106821,0.01,0.01,1.00,1.53,-1.89,2.20
106837,0.01,0.01,1.00,1.59,-1.89,2.14
106853,0.01,0.01,1.00,1.65,-1.83,2.14
106869,0.01,0.01,1.00,1.59,-1.89,2.14
106885,0.01,0.01,1.00,1.65,-1.95,2.14
106901,0.01,0.01,1.00,1.59,-1.83,2.08
106917,0.01,0.01,1.00,1.59,-1.89,2.08
106933,0.01,0.01,1.00,1.65,-1.95,2.08
106949,0.01,0.01,1.00,1.65,-1.89,2.14
106965,0.01,0.01,1.00,1.59,-1.89,2.08
106981,0.01,0.01,1.00,1.65,-2.01,2.08
106997,0.01,0.01,1.00,1.65,-1.89,2.08
107013,0.01,0.01,1.00,1.59,-1.83,2.08
107029,0.01,0.01,1.00,1.65,-1.95,2.14
107045,0.01,0.01,1.00,1.59,-1.83,2.14
107061,0.01,0.01,1.00,1.59,-1.89,2.14
107077,0.01,0.01,1.00,1.65,-1.95,2.14
107093,0.01,0.01,1.00,1.65,-1.83,2.14
107109,0.01,0.01,1.00,1.65,-1.83,2.08
107125,0.01,0.01,1.00,1.65,-1.89,2.08
107141,0.01,0.01,1.00,1.59,-1.95,2.01
107157,0.01,0.01,1.00,1.59,-1.89,2.08
107173,0.01,0.01,1.00,1.65,-1.95,2.14
107189,0.01,0.01,1.00,1.59,-1.95,2.14
107205,0.01,0.01,1.00,1.71,-1.83,2.14
107221,0.01,0.01,1.00,1.59,-1.89,2.08
107237,0.01,0.01,1.00,1.59,-1.89,2.14
107253,0.01,0.01,1.00,1.65,-1.89,2.14
107269,0.01,0.01,1.00,1.71,-2.01,2.08
107285,0.01,0.01,1.00,1.65,-1.95,2.14
107301,0.01,0.00,1.00,1.59,-1.89,2.08
107317,0.01,0.01,1.00,1.65,-1.89,2.14
107333,0.01,0.01,1.00,1.65,-1.89,2.14
107349,0.01,0.01,1.00,1.65,-1.83,2.08
107365,0.01,0.01,1.00,1.59,-1.89,2.14
107381,0.01,0.01,1.00,1.65,-1.89,2.20
107397,0.01,0.01,1.00,1.59,-1.83,2.08
107413,0.01,0.01,1.00,1.65,-1.83,2.14
107429,0.01,0.01,1.00,1.59,-1.89,2.14
107445,0.01,0.01,1.00,1.59,-1.89,2.08
107461,0.01,0.01,1.00,1.59,-1.89,2.01
107477,0.01,0.01,1.00,1.65,-1.95,2.14
107493,0.01,0.01,1.00,1.65,-1.89,2.26
107509,0.01,0.01,1.00,1.65,-1.89,2.14
107525,0.01,0.01,1.00,1.65,-1.89,2.14
107541,0.01,0.01,1.00,1.59,-1.89,2.14
107557,0.01,0.01,1.00,1.59,-1.89,2.14
107573,0.01,0.01,1.00,1.59,-1.89,2.14
107589,0.01,0.01,1.00,1.65,-1.95,2.14
107605,0.01,0.01,1.00,1.59,-1.95,2.14
107621,0.01,0.01,1.00,1.65,-1.95,2.14
107637,0.01,0.01,1.00,1.59,-1.89,2.08
107653,0.01,0.01,1.00,1.59,-1.89,2.20
107669,0.01,0.01,1.00,1.59,-1.89,2.14
107685,0.01,0.01,1.00,1.65,-1.89,2.08
107701,0.01,0.01,1.00,1.71,-1.83,2.14
107717,0.01,0.01,1.00,1.65,-1.89,2.08
107733,0.01,0.01,1.00,1.65,-1.89,2.14
107749,0.01,0.01,1.00,1.65,-1.89,2.14
107765,0.01,0.01,1.00,1.71,-1.89,2.08
107781,0.01,0.01,1.00,1.59,-1.89,2.14
107797,0.01,0.01,1.00,1.59,-1.89,2.08
107813,0.01,0.01,1.00,1.59,-1.95,2.14
107829,0.01,0.01,1.00,1.65,-1.89,2.01
107845,0.01,0.01,1.00,1.59,-1.89,2.14
107861,0.01,0.01,1.00,1.65,-1.83,2.08
107877,0.01,0.01,1.00,1.71,-1.89,2.08
107893,0.01,0.01,1.00,1.59,-1.83,2.08
107909,0.01,0.01,1.00,1.65,-1.83,2.14
107925,0.01,0.01,1.00,1.65,-1.95,2.14
107941,0.01,0.01,1.00,1.65,-1.89,2.14
107957,0.01,0.01,1.00,1.65,-1.89,2.20
107973,0.01,0.01,1.00,1.59,-1.89,2.14
107989,0.01,0.01,1.00,1.65,-1.89,2.14
108005,0.01,0.01,1.00,1.59,-1.83,2.14
108021,0.01,0.01,1.00,1.59,-1.95,2.08
108037,0.01,0.01,1.00,1.65,-1.83,2.14
108053,0.01,0.01,1.00,1.59,-1.83,2.14
108069,0.01,0.01,1.00,1.59,-1.89,2.14
108085,0.01,0.01,1.00,1.59,-1.89,2.14
108101,0.01,0.01,1.00,1.65,-1.89,2.08
108117,0.01,0.01,1.00,1.65,-1.89,2.14
108133,0.01,0.01,1.00,1.65,-1.89,2.14
108149,0.01,0.01,1.00,1.59,-1.83,2.14
108165,0.01,0.01,1.00,1.65,-1.89,2.14
108181,0.01,0.01,1.00,1.65,-1.95,2.14
108197,0.01,0.01,1.00,1.65,-1.89,2.14
108213,0.01,0.01,1.00,1.65,-1.83,2.20
108229,0.01,0.01,1.00,1.59,-1.83,2.20
108245,0.01,0.01,1.00,1.59,-1.89,2.14
108261,0.01,0.01,1.00,1.65,-1.89,2.14
108277,0.01,0.01,1.00,1.65,-1.89,2.20
108293,0.01,0.01,1.00,1.59,-1.83,2.08
108309,0.01,0.01,1.00,1.65,-1.95,2.20
108325,0.01,0.01,1.00,1.59,-1.89,2.20
108341,0.01,0.01,1.00,1.65,-1.83,2.20
108357,0.01,0.01,1.00,1.59,-1.89,2.08
108373,0.01,0.01,1.00,1.59,-1.95,2.08
108389,0.01,0.01,1.00,1.71,-1.89,2.14
108405,0.01,0.01,1.00,1.59,-1.89,2.14
108421,0.01,0.00,1.00,1.59,-1.89,2.14
108437,0.01,0.01,1.00,1.59,-1.89,2.20
108453,0.00,0.01,1.00,1.65,-1.95,2.08
108469,0.01,0.01,1.00,1.59,-1.89,2.14
108485,0.01,0.01,1.00,1.65,-1.83,2.14
108501,0.01,0.01,1.00,1.65,-1.89,2.14
108517,0.01,0.01,1.00,1.65,-1.89,2.14
108533,0.01,0.01,1.00,1.65,-1.89,2.14
108549,0.01,0.01,1.00,1.65,-1.89,2.08
108565,0.01,0.01,1.00,1.59,-1.89,2.14
108581,0.01,0.01,1.00,1.65,-1.83,2.14
108597,0.01,0.01,1.00,1.59,-1.89,2.08
108613,0.01,0.01,1.00,1.65,-1.89,2.14
108629,0.01,0.01,1.00,1.65,-1.95,2.14
108645,0.01,0.01,1.00,1.59,-1.83,2.14
108661,0.01,0.01,1.00,1.65,-1.89,2.14
108677,0.01,0.01,1.00,1.59,-1.89,2.14
108693,0.01,0.01,1.00,1.59,-1.89,2.14
108709,0.01,0.01,1.00,1.59,-1.95,2.26
108725,0.01,0.01,1.00,1.65,-1.89,2.14
108741,0.01,0.01,1.00,1.59,-1.89,2.08
108757,0.01,0.01,1.00,1.65,-1.89,2.14
108773,0.01,0.01,1.00,1.65,-1.89,2.20
108789,0.01,0.01,1.00,1.59,-1.95,2.14
108805,0.01,0.01,1.00,1.65,-1.89,2.08
108821,0.01,0.01,1.00,1.59,-1.89,2.14
108837,0.01,0.01,1.00,1.59,-1.89,2.20
108853,0.01,0.01,1.00,1.59,-1.89,2.08
108869,0.01,0.01,1.00,1.65,-1.95,2.14
108885,0.01,0.01,1.00,1.53,-1.89,2.14
108901,0.01,0.01,1.00,1.65,-1.95,2.14
108917,0.01,0.01,1.00,1.59,-1.89,2.14
108933,0.01,0.01,1.00,1.59,-1.95,2.08
108949,0.01,0.01,1.00,1.65,-1.89,2.14
108965,0.01,0.01,1.00,1.65,-1.95,2.14
108981,0.01,0.01,1.00,1.53,-1.83,2.08
108997,0.01,0.01,1.00,1.59,-1.89,2.14
109013,0.01,0.01,1.00,1.59,-1.89,2.14
109029,0.01,0.01,1.00,1.65,-1.83,2.14
109045,0.01,0.01,1.00,1.65,-1.89,2.20
109061,0.01,0.01,1.00,1.59,-1.89,2.14
109077,0.01,0.01,1.00,1.59,-1.89,2.08
109093,0.01,0.01,1.00,1.59,-1.89,2.14
109109,0.01,0.01,1.00,1.59,-2.01,2.20
109125,0.01,0.01,1.00,1.59,-1.83,2.14
109141,0.01,0.01,1.00,1.53,-1.83,2.14
109157,0.01,0.01,1.00,1.65,-1.95,2.20
109173,0.01,0.01,1.00,1.65,-1.89,2.14
109189,0.01,0.01,1.00,1.59,-1.89,2.14
109205,0.01,0.01,1.00,1.65,-1.89,2.14
109221,0.01,0.01,1.00,1.65,-1.83,2.20
109237,0.01,0.01,1.00,1.59,-1.83,2.08
109253,0.01,0.01,1.00,1.59,-1.95,2.20
109269,0.01,0.01,1.01,1.65,-1.89,2.20
109285,0.01,0.01,1.00,1.59,-1.83,2.14
109301,0.01,0.01,1.00,1.59,-1.83,2.14
109317,0.01,0.01,1.00,1.65,-1.89,2.20
109333,0.01,0.01,1.00,1.59,-1.89,2.14
109349,0.00,0.01,1.00,1.59,-1.95,2.14
109365,0.01,0.01,1.00,1.65,-1.89,2.20
109381,0.01,0.01,1.01,1.65,-1.95,2.14
109397,0.01,0.01,1.00,1.59,-1.83,2.08
109413,0.01,0.00,1.00,1.65,-1.89,2.20
109429,0.01,0.00,1.00,1.65,-1.89,2.14
109445,0.01,0.01,1.00,1.59,-1.89,2.08
109461,0.01,0.01,1.00,1.59,-1.95,2.14
109477,0.01,0.01,1.00,1.59,-1.95,2.20
109493,0.01,0.01,1.00,1.65,-1.89,2.14
109509,0.01,0.01,1.00,1.65,-1.89,2.14
109525,0.01,0.01,1.00,1.59,-1.89,2.20
109541,0.01,0.01,1.00,1.71,-1.89,2.20
109557,0.01,0.01,1.00,1.59,-1.89,2.20
109573,0.01,0.01,1.00,1.65,-1.89,2.26
109589,0.01,0.00,1.00,1.65,-1.89,2.20
109605,0.01,0.01,1.00,1.65,-1.95,2.14
109621,0.01,0.01,1.00,1.65,-1.95,2.14
109637,0.01,0.01,1.00,1.71,-1.95,2.20
109653,0.01,0.01,1.00,1.65,-1.89,2.14
109669,0.01,0.01,1.00,1.65,-1.83,2.20
109685,0.00,0.01,1.00,1.71,-1.83,2.14
109701,0.01,0.01,1.00,1.59,-1.89,2.14
109717,0.01,0.01,1.00,1.65,-1.89,2.08
109733,0.01,0.01,1.00,1.65,-1.89,2.14
109749,0.01,0.01,1.00,1.65,-2.01,2.14
109765,0.01,0.01,1.00,1.65,-1.89,2.14
109781,0.01,0.01,1.00,1.65,-1.83,2.08
109797,0.00,0.01,1.00,1.65,-1.89,2.14
109813,0.01,0.01,1.00,1.65,-1.95,2.20
109829,0.01,0.01,1.00,1.65,-1.89,2.14
109845,0.01,0.01,1.00,1.65,-1.89,2.14
109861,0.01,0.01,1.00,1.65,-1.89,2.14
109877,0.01,0.01,1.00,1.65,-1.83,2.14
109893,0.01,0.01,1.00,1.65,-1.89,2.20
109909,0.01,0.01,1.00,1.65,-1.89,2.20
109925,0.01,0.01,1.00,1.59,-1.83,2.14
109941,0.01,0.01,1.00,1.65,-1.89,2.08
109957,0.01,0.01,1.00,1.65,-1.95,2.14
109973,0.01,0.01,1.00,1.65,-1.89,2.08
109989,0.01,0.00,1.00,1.65,-1.89,2.08
110005,0.01,0.01,1.00,1.71,-2.01,2.14