time,accel_x,accel_y,accel_z,gyro_x,gyro_y,gyro_z
270022,0.01,0.01,1.00,1.59,-1.89,2.20
270037,0.01,0.01,1.00,1.65,-1.83,2.14
270053,0.01,0.01,1.00,1.59,-1.89,2.14
270069,0.01,0.01,1.00,1.65,-1.95,2.14
270085,0.01,0.01,1.00,1.59,-1.89,2.14
270101,0.01,0.00,1.00,1.65,-1.89,2.14
270117,0.01,0.01,1.00,1.59,-1.95,2.14
270133,0.01,0.01,1.00,1.65,-1.89,2.08
270149,0.00,0.01,1.00,1.59,-1.95,2.14
270165,0.01,0.01,1.00,1.65,-1.95,2.14
270181,0.01,0.01,1.00,1.71,-1.89,2.08
270197,0.01,0.01,1.00,1.59,-1.89,2.14
270213,0.01,0.01,1.00,1.65,-1.95,2.14
270229,0.01,0.01,1.00,1.65,-1.89,2.20
270245,0.01,0.01,1.00,1.59,-1.89,2.14
270261,0.01,0.01,1.00,1.59,-1.89,2.14
270277,0.01,0.01,1.00,1.65,-1.89,2.14
270293,0.01,0.01,1.00,1.59,-1.89,2.14
270309,0.01,0.01,1.00,1.59,-1.89,2.08
270325,0.01,0.01,1.00,1.65,-1.89,2.14
270341,0.01,0.01,1.00,1.65,-1.83,2.20
270357,0.01,0.01,1.00,1.65,-1.89,2.08
270373,0.01,0.01,1.00,1.65,-1.89,2.14
270389,0.01,0.01,1.00,1.59,-1.89,2.20
270405,0.01,0.01,1.00,1.65,-1.83,2.14
270421,0.01,0.01,1.00,1.65,-1.89,2.08
270437,0.01,0.01,1.00,1.59,-1.89,2.14
270453,0.01,0.01,1.00,1.59,-1.83,2.20
270469,0.01,0.01,1.00,1.59,-1.83,2.08
270485,0.01,0.01,1.00,1.65,-1.83,2.14
270501,0.01,0.01,1.00,1.65,-1.83,2.14
270517,0.01,0.01,1.00,1.65,-1.83,2.14
270533,0.01,0.01,1.00,1.65,-1.89,2.20
270549,0.01,0.01,1.00,1.59,-1.95,2.20
270565,0.01,0.01,1.00,1.59,-1.89,2.20
270581,0.01,0.01,1.00,1.59,-1.95,2.14
270597,0.01,0.01,1.00,1.65,-1.95,2.20
270613,0.01,0.01,1.00,1.59,-1.89,2.14
270629,0.01,0.01,1.00,1.59,-1.89,2.08
270645,0.01,0.01,1.00,1.71,-1.89,2.14
270661,0.01,0.01,1.00,1.65,-1.89,2.14
270677,0.01,0.01,1.00,1.71,-1.95,2.14
270693,0.01,0.01,1.00,1.59,-1.83,2.14
270709,0.01,0.01,1.00,1.59,-1.89,2.14
270725,0.01,0.01,1.00,1.59,-1.89,2.08
270741,0.01,0.01,1.00,1.65,-1.83,2.08
270757,0.01,0.01,1.00,1.59,-1.95,2.14
270773,0.01,0.01,1.00,1.65,-1.89,2.20
270789,0.01,0.01,1.00,1.59,-1.89,2.08
270805,0.01,0.01,1.00,1.65,-1.95,2.14
270821,0.01,0.01,1.00,1.59,-1.95,2.08
270837,0.01,0.01,1.00,1.59,-1.89,2.20
270853,0.01,0.01,1.00,1.65,-1.83,2.14
270869,0.01,0.01,1.00,1.59,-1.89,2.14
270885,0.01,0.01,1.00,1.65,-1.83,2.14
270901,0.01,0.01,1.00,1.59,-1.83,2.08
270917,0.00,0.01,1.00,1.65,-1.89,2.14
270933,0.01,0.01,1.00,1.59,-1.89,2.14
270949,0.01,0.01,1.00,1.65,-1.83,2.14
270965,0.01,0.01,1.00,1.65,-1.89,2.14
270981,0.01,0.01,1.00,1.59,-1.89,2.14
270997,0.01,0.01,1.00,1.65,-1.89,2.14
271013,0.01,0.01,1.00,1.59,-1.89,2.14
271029,0.01,0.01,1.00,1.59,-1.95,2.14
271045,0.01,0.00,1.00,1.65,-1.89,2.20
271061,0.01,0.01,1.00,1.59,-1.89,2.20
271077,0.01,0.01,1.00,1.65,-1.89,2.14
271093,0.01,0.01,1.00,1.65,-1.89,2.08
271109,0.01,0.01,1.00,1.65,-1.89,2.08
271125,0.01,0.01,1.00,1.65,-1.83,2.08
271141,0.01,0.01,1.00,1.59,-1.89,2.14
271157,0.01,0.01,1.00,1.65,-1.95,2.08
271173,0.01,0.01,1.00,1.59,-1.95,2.08
271189,0.01,0.01,1.00,1.65,-1.89,2.14
271205,0.01,0.01,1.00,1.65,-1.89,2.08
271221,0.01,0.01,1.00,1.65,-1.83,2.20
271237,0.01,0.01,1.00,1.59,-1.89,2.14
271253,0.01,0.01,1.00,1.65,-1.89,2.14
271269,0.01,0.01,1.00,1.59,-1.83,2.14
271285,0.01,0.01,1.00,1.65,-1.95,2.14
271301,0.01,0.01,1.00,1.59,-1.83,2.14
271317,0.01,0.01,1.00,1.65,-1.89,2.08
271333,0.01,0.01,1.00,1.65,-1.89,2.20
271349,0.01,0.01,1.00,1.59,-1.89,2.20
271365,0.01,0.01,1.00,1.59,-1.89,2.14
271381,0.01,0.01,1.00,1.65,-1.89,2.14
271397,0.01,0.01,1.00,1.65,-1.89,2.14
271413,0.01,0.01,1.00,1.53,-1.89,2.14
271429,0.01,0.01,1.00,1.59,-1.95,2.14
271445,0.01,0.00,1.00,1.65,-1.95,2.08
271461,0.01,0.01,1.00,1.59,-1.89,2.08
271477,0.01,0.01,1.00,1.65,-1.83,2.08
271493,0.01,0.01,1.00,1.59,-2.01,2.14
271509,0.01,0.01,1.00,1.59,-1.89,2.08
271525,0.01,0.01,1.00,1.65,-1.95,2.14
271541,0.01,0.01,1.00,1.65,-1.89,2.08
271557,0.01,0.01,1.00,1.59,-1.89,2.14
271573,0.01,0.01,1.00,1.65,-1.95,2.14
271589,0.01,0.01,1.00,1.53,-1.89,2.08
271605,0.01,0.01,1.00,1.59,-1.89,2.08
271621,0.01,0.01,1.00,1.59,-1.83,2.14
271637,0.01,0.01,1.00,1.59,-1.83,2.08
271653,0.01,0.01,1.00,1.59,-1.89,2.14
271669,0.01,0.01,1.00,1.65,-1.89,2.14
271685,0.01,0.01,1.00,1.59,-1.83,2.14
271701,0.01,0.01,1.00,1.59,-1.89,2.08
271717,0.01,0.01,1.00,1.65,-1.89,2.14
271733,0.01,0.01,1.00,1.65,-1.83,2.14
271749,0.01,0.01,1.00,1.59,-1.83,2.08
271765,0.01,0.01,1.00,1.59,-1.89,2.14
271781,0.01,0.01,1.00,1.59,-1.89,2.14
271797,0.01,0.01,1.00,1.59,-1.89,2.14
271813,0.01,0.01,1.00,1.59,-1.95,2.14
271829,0.01,0.01,1.00,1.59,-1.89,2.14
271845,0.01,0.01,1.00,1.65,-1.89,2.14
271861,0.01,0.01,1.00,1.59,-1.89,2.20
271877,0.01,0.01,1.00,1.59,-1.89,2.14
271893,0.01,0.01,1.00,1.59,-2.01,2.20
271909,0.01,0.01,1.00,1.59,-1.95,2.14
271925,0.01,0.01,1.00,1.65,-1.89,2.14
271941,0.01,0.01,1.00,1.59,-1.89,2.08
271957,0.01,0.01,1.00,1.65,-1.89,2.14
271973,0.01,0.01,1.00,1.65,-1.83,2.08
271989,0.01,0.01,1.00,1.65,-1.89,2.14
272005,0.01,0.01,1.00,1.59,-1.89,2.14
272021,0.01,0.01,1.00,1.71,-1.89,2.14
272037,0.01,0.01,1.00,1.65,-1.77,2.01
272053,0.01,0.01,1.00,1.65,-1.83,2.08
272069,0.01,0.01,1.00,1.65,-1.83,2.14
272085,0.01,0.01,1.00,1.59,-1.83,2.14
272101,0.01,0.01,1.00,1.59,-1.83,2.14
272117,0.01,0.01,1.00,1.65,-1.89,2.08
272133,0.01,0.01,1.00,1.59,-1.89,2.08
272149,0.01,0.01,1.00,1.65,-1.89,2.08
272165,0.01,0.01,1.00,1.65,-1.95,2.14
272181,0.01,0.01,1.00,1.59,-1.83,2.14
272197,0.01,0.01,1.00,1.59,-1.89,2.14
272213,0.01,0.01,1.00,1.59,-1.89,2.14
272229,0.01,0.01,1.00,1.65,-1.89,2.01
272245,0.01,0.01,1.00,1.65,-1.83,2.08
272261,0.01,0.01,1.00,1.71,-1.95,2.14
272277,0.01,0.01,1.00,1.71,-1.77,2.14
272293,0.01,0.01,1.00,1.65,-1.89,2.08
272309,0.01,0.01,1.00,1.65,-1.95,2.14
272325,0.01,0.01,1.00,1.65,-1.95,2.08
272341,0.01,0.01,1.00,1.65,-1.89,2.14
272357,0.01,0.01,1.00,1.59,-1.95,2.14
272373,0.01,0.01,1.00,1.59,-1.83,2.20
272389,0.01,0.01,1.00,1.65,-1.89,2.08
272405,0.01,0.01,1.00,1.65,-1.89,2.08
272421,0.01,0.01,1.00,1.65,-1.89,2.20
272437,0.01,0.01,1.00,1.59,-1.89,2.14
272453,0.01,0.01,1.00,1.59,-1.89,2.08
272469,0.01,0.01,1.00,1.59,-1.89,2.14
272485,0.01,0.01,1.00,1.65,-1.89,2.08
272501,0.01,0.01,1.00,1.65,-1.89,2.14
272517,0.01,0.01,1.01,1.65,-1.89,2.20
272533,0.01,0.01,1.00,1.65,-1.83,2.14
272549,0.01,0.01,1.00,1.59,-1.89,2.20
272565,0.01,0.01,1.00,1.59,-1.89,2.14
272581,0.01,0.01,1.00,1.65,-1.89,2.14
272597,0.01,0.01,1.00,1.65,-1.89,2.14
272613,0.01,0.01,1.00,1.65,-1.89,2.14
272629,0.01,0.01,1.00,1.59,-1.83,2.20
272645,0.01,0.01,1.00,1.65,-1.95,2.08
272661,0.01,0.01,1.00,1.59,-1.95,2.08
272677,0.01,0.01,1.00,1.53,-1.83,2.14
272693,0.01,0.01,1.00,1.59,-1.83,2.14
272709,0.01,0.01,1.00,1.59,-1.89,2.08
272725,0.01,0.01,1.00,1.65,-1.83,2.01
272741,0.01,0.01,1.00,1.59,-1.89,2.14
272757,0.01,0.01,1.00,1.59,-1.89,2.14
272773,0.01,0.01,1.00,1.65,-1.83,2.14
272789,0.01,0.01,1.00,1.65,-1.89,2.14
272805,0.01,0.01,1.00,1.65,-1.95,2.14
272821,0.01,0.01,1.00,1.65,-1.83,2.20
272837,0.01,0.01,1.00,1.65,-1.89,2.14
272853,0.01,0.01,1.00,1.53,-1.89,2.14
272869,0.01,0.01,1.00,1.65,-1.83,2.08
272885,0.01,0.01,1.00,1.65,-1.83,2.14
272901,0.01,0.01,1.00,1.65,-1.89,2.08
272917,0.01,0.01,1.00,1.65,-1.89,2.14
272933,0.00,0.01,1.00,1.59,-2.01,2.14
272949,0.01,0.01,1.00,1.59,-1.95,2.14
272965,0.01,0.01,1.00,1.65,-1.89,2.08
272981,0.01,0.01,1.00,1.59,-1.95,2.14
272997,0.01,0.01,1.00,1.59,-1.89,2.08
273013,0.01,0.01,1.00,1.65,-1.89,2.14
273029,0.01,0.01,1.00,1.65,-1.89,2.20
273045,0.01,0.01,1.00,1.65,-1.83,2.14
273061,0.01,0.01,1.00,1.65,-1.89,2.14
273077,0.00,0.01,1.00,1.59,-1.83,2.08
273093,0.01,0.01,1.00,1.59,-1.95,2.08
273109,0.01,0.01,1.00,1.65,-1.95,2.08
273125,0.01,0.01,1.00,1.59,-1.89,2.20
273141,0.01,0.01,1.00,1.59,-1.95,2.14
273157,0.01,0.01,1.00,1.59,-1.89,2.08
273173,0.01,0.01,1.00,1.65,-1.89,2.08
273189,0.01,0.01,1.00,1.65,-1.95,2.08
273205,0.01,0.01,1.00,1.65,-1.89,2.14
273221,0.01,0.01,1.00,1.59,-1.89,2.14
273237,0.01,0.01,1.00,1.59,-1.89,2.14
273253,0.01,0.01,1.00,1.59,-1.83,2.08
273269,0.01,0.01,1.00,1.65,-1.89,2.14
273285,0.01,0.01,1.00,1.59,-1.89,2.08
273301,0.01,0.01,1.00,1.71,-1.95,2.08
273317,0.01,0.01,1.00,1.65,-1.95,2.08
273333,0.01,0.01,1.00,1.65,-1.89,2.14
273349,0.01,0.01,1.00,1.59,-1.83,2.08
273365,0.01,0.01,1.00,1.65,-1.89,2.14
273381,0.01,0.01,1.00,1.59,-1.95,2.14
273397,0.01,0.01,1.00,1.53,-1.89,2.14
273413,0.01,0.01,1.00,1.59,-1.89,2.08
273429,0.00,0.01,1.00,1.59,-1.89,2.08
273445,0.01,0.01,1.00,1.59,-1.95,2.08
273461,0.01,0.01,1.00,1.59,-1.89,2.08
273477,0.01,0.01,1.00,1.59,-1.89,2.20
273493,0.01,0.01,1.01,1.65,-1.95,2.08
273509,0.01,0.01,1.00,1.65,-1.83,2.14
273525,0.01,0.01,1.00,1.59,-1.89,2.08
273541,0.01,0.01,1.00,1.65,-1.89,2.14
273557,0.01,0.01,1.00,1.53,-1.83,2.14
273573,0.00,0.01,1.00,1.59,-1.83,2.08
273589,0.01,0.01,1.00,1.59,-1.95,2.01
273605,0.01,0.01,1.00,1.59,-1.89,2.08
273621,0.01,0.01,1.00,1.65,-1.83,2.14
273637,0.01,0.01,1.00,1.65,-1.89,2.14
273653,0.01,0.01,1.00,1.71,-1.89,2.14
273669,0.01,0.01,1.00,1.59,-1.83,2.14
273685,0.01,0.01,1.00,1.59,-1.89,2.08
273701,0.01,0.01,1.00,1.59,-1.89,2.14
273717,0.01,0.01,1.00,1.53,-1.83,2.14
273733,0.01,0.01,1.00,1.65,-1.89,2.14
273749,0.01,0.01,1.00,1.59,-1.89,2.14
273765,0.01,0.01,1.00,1.59,-1.83,2.14
273781,0.01,0.01,1.00,1.59,-1.83,2.14
273797,0.01,0.01,1.00,1.59,-1.95,2.14
273813,0.01,0.01,1.00,1.65,-1.89,2.14
273829,0.01,0.01,1.00,1.65,-1.95,2.14
273845,0.01,0.01,1.00,1.59,-1.95,2.20
273861,0.01,0.01,1.00,1.59,-1.89,2.08
273877,0.01,0.00,1.00,1.59,-1.89,2.14
273893,0.01,0.01,1.00,1.65,-1.95,2.08
273909,0.01,0.01,1.00,1.65,-1.89,2.08
273925,0.01,0.01,1.00,1.65,-1.89,2.20
273941,0.01,0.01,1.00,1.65,-1.89,2.14
273957,0.01,0.01,1.00,1.59,-1.89,2.08
273973,0.01,0.01,1.00,1.65,-1.89,2.14
273989,0.01,0.01,1.00,1.65,-1.89,2.14
274005,0.01,0.01,1.00,1.65,-1.89,2.14
274021,0.01,0.01,1.00,1.59,-1.89,2.14
274037,0.01,0.01,1.00,1.59,-1.83,2.14
274053,0.01,0.01,1.00,1.59,-1.83,2.20
274069,0.01,0.01,1.00,1.59,-1.89,2.08
274085,0.01,0.01,1.00,1.65,-2.01,2.14
274101,0.01,0.01,1.00,1.65,-1.95,2.08
274117,0.01,0.01,1.00,1.53,-1.83,2.08
274133,0.01,0.01,1.00,1.71,-1.89,2.14
274149,0.01,0.01,1.00,1.59,-1.89,2.14
274165,0.01,0.01,1.00,1.59,-1.89,2.14
274181,0.01,0.01,1.00,1.65,-1.95,2.14
274197,0.01,0.01,1.00,1.59,-1.95,2.08
274213,0.01,0.01,1.00,1.59,-1.83,2.14
274229,0.01,0.01,1.00,1.65,-1.89,2.20
274245,0.01,0.01,1.00,1.53,-1.89,2.08
274261,0.01,0.01,1.00,1.59,-1.89,2.20
274277,0.01,0.01,1.00,1.65,-1.89,2.14
274293,0.01,0.01,1.00,1.59,-1.89,2.14
274309,0.01,0.01,1.00,1.59,-1.83,2.08
274325,0.01,0.01,1.00,1.59,-1.89,2.14
274341,0.01,0.01,1.00,1.59,-1.95,2.14
274357,0.01,0.01,1.00,1.59,-1.89,2.08
274373,0.00,0.01,1.00,1.59,-1.95,2.08
274389,0.01,0.01,1.00,1.65,-1.89,2.08
274405,0.01,0.01,1.00,1.65,-1.89,2.08
274421,0.01,0.01,1.00,1.59,-1.89,2.08
274437,0.01,0.01,1.00,1.59,-1.83,2.08
274453,0.01,0.01,1.00,1.59,-1.89,2.14
274469,0.01,0.01,1.00,1.59,-1.89,2.14
274485,0.01,0.01,1.00,1.59,-1.89,2.08
274501,0.01,0.01,1.00,1.65,-1.95,2.08
274517,0.00,0.01,1.00,1.59,-1.89,2.14
274533,0.01,0.01,1.00,1.65,-1.89,2.08
274549,0.01,0.01,1.00,1.65,-1.95,2.14
274565,0.01,0.01,1.00,1.65,-1.89,2.14
274581,0.01,0.01,1.00,1.65,-1.89,2.14
274597,0.01,0.01,1.00,1.59,-1.83,2.14
274613,0.01,0.01,1.00,1.65,-1.89,2.20
274629,0.01,0.01,1.00,1.59,-1.89,2.20
274645,0.01,0.01,1.00,1.59,-1.89,2.20
274661,0.01,0.01,1.00,1.65,-1.89,2.20
274677,0.01,0.01,1.00,1.59,-1.89,2.14
274693,0.01,0.01,1.00,1.59,-1.89,2.08
274709,0.01,0.01,1.00,1.71,-1.89,2.20
274725,0.01,0.01,1.00,1.65,-1.95,2.08
274741,0.01,0.01,1.00,1.59,-1.89,2.08
274757,0.01,0.01,1.00,1.59,-1.89,2.14
274773,0.01,0.01,1.00,1.65,-1.89,2.20
274789,0.01,0.01,1.00,1.65,-1.83,2.14
274805,0.01,0.01,1.00,1.59,-1.77,2.14
274821,0.01,0.01,1.00,1.65,-1.83,2.08
274837,0.01,0.01,1.00,1.59,-1.89,2.20
274853,0.01,0.01,1.00,1.65,-1.83,2.08
274869,0.01,0.01,1.00,1.59,-1.89,2.08
274885,0.01,0.01,1.00,1.65,-1.89,2.08
274901,0.01,0.01,1.00,1.65,-1.89,2.08
274917,0.01,0.01,1.00,1.59,-1.89,2.08
274933,0.01,0.01,1.00,1.65,-1.89,2.14
274949,0.01,0.01,1.00,1.65,-1.89,2.14
274965,0.01,0.01,1.00,1.65,-1.89,2.14
274981,0.01,0.01,1.00,1.65,-1.89,2.08
274997,0.01,0.01,1.00,1.59,-1.89,2.14
275013,0.01,0.01,1.00,1.59,-1.89,2.14
275029,0.01,0.01,1.00,1.65,-1.95,2.14
275045,0.01,0.01,1.01,1.65,-1.89,2.08
275061,0.01,0.01,1.00,1.59,-1.77,2.08
275077,0.01,0.01,1.00,1.65,-1.89,2.14
275093,0.01,0.01,1.00,1.65,-1.83,2.14
275109,0.01,0.01,1.00,1.65,-1.89,2.14
275125,0.01,0.01,1.00,1.65,-1.83,2.08
275141,0.01,0.01,1.00,1.59,-1.95,2.14
275157,0.01,0.01,1.00,1.65,-1.95,2.08
275173,0.01,0.01,1.00,1.65,-1.89,2.08
275189,0.01,0.01,1.00,1.65,-1.89,2.01
275205,0.01,0.01,1.00,1.59,-1.89,2.14
275221,0.01,0.01,1.00,1.59,-1.89,2.08
275237,0.01,0.01,1.00,1.65,-1.89,2.14
275253,0.00,0.01,1.00,1.65,-1.95,2.08
275269,0.01,0.01,1.00,1.59,-1.89,2.14
275285,0.01,0.01,1.00,1.59,-1.95,2.14
275301,0.01,0.01,1.00,1.65,-1.95,2.14
275317,0.01,0.01,1.01,1.65,-1.89,2.08
275333,0.00,0.01,1.00,1.59,-1.89,2.08
275349,0.01,0.01,1.00,1.65,-1.77,2.14
275365,0.01,0.01,1.00,1.65,-1.89,2.08
275381,0.01,0.01,1.00,1.59,-1.95,2.14
275397,0.01,0.01,1.00,1.65,-1.89,2.14
275413,0.01,0.01,1.00,1.59,-1.89,2.08
275429,0.01,0.01,1.00,1.59,-1.89,2.14
275445,0.01,0.01,1.00,1.59,-1.89,2.08
275461,0.01,0.01,1.00,1.59,-1.89,2.08
275477,0.01,0.01,1.00,1.59,-1.95,2.14
275493,0.01,0.01,1.00,1.65,-1.89,2.08
275509,0.01,0.01,1.00,1.59,-1.89,2.14
275525,0.01,0.01,1.00,1.53,-1.95,2.14
275541,0.01,0.01,1.00,1.53,-1.95,2.08
275557,0.01,0.01,1.00,1.59,-1.89,2.14
275573,0.01,0.01,1.00,1.65,-1.89,2.08
275589,0.01,0.01,1.00,1.65,-1.83,2.08
275605,0.01,0.01,1.00,1.65,-1.89,2.14
275621,0.01,0.01,1.00,1.59,-1.77,2.08
275637,0.01,0.01,1.00,1.53,-1.77,2.14
275653,0.01,0.01,1.00,1.65,-1.89,2.08
275669,0.01,0.01,1.00,1.59,-1.95,2.08
275685,0.00,0.01,1.00,1.65,-1.89,2.14
275701,0.01,0.01,1.00,1.59,-1.83,2.14
275717,0.01,0.01,1.00,1.65,-1.89,2.14
275733,0.01,0.01,1.00,1.65,-1.89,2.08
275749,0.01,0.01,1.00,1.59,-1.89,2.08
275765,0.01,0.01,1.00,1.65,-1.95,2.14
275781,0.01,0.01,1.00,1.65,-1.83,2.14
275797,0.01,0.01,1.00,1.59,-1.89,2.14
275813,0.01,0.01,1.00,1.53,-1.89,2.14
275829,0.01,0.01,1.00,1.59,-1.89,2.08
275845,0.01,0.01,1.00,1.65,-1.95,2.08
275861,0.01,0.01,1.00,1.65,-1.83,2.08
275877,0.01,0.01,1.00,1.59,-1.89,2.08
275893,0.01,0.01,1.00,1.71,-1.95,2.14
275909,0.01,0.01,1.00,1.65,-1.89,2.20
275925,0.01,0.01,1.00,1.65,-1.89,2.14
275941,0.01,0.01,1.00,1.71,-1.83,2.20
275957,0.01,0.01,1.00,1.59,-1.83,2.14
275973,0.01,0.01,1.00,1.59,-1.83,2.20
275989,0.01,0.01,1.00,1.65,-1.89,2.08
276005,0.01,0.01,1.00,1.65,-1.89,2.08
276021,0.01,0.01,1.00,1.65,-1.89,2.08
276037,0.01,0.01,1.00,1.65,-1.83,2.14
276053,0.01,0.01,1.00,1.65,-1.83,2.08
276069,0.01,0.01,1.00,1.59,-1.83,2.20
276085,0.01,0.01,1.00,1.65,-1.95,2.08
276101,0.01,0.01,1.00,1.65,-1.83,2.08
276117,0.01,0.01,1.00,1.65,-1.89,2.08
276133,0.01,0.01,1.00,1.59,-1.77,2.08
276149,0.01,0.01,1.00,1.65,-1.89,2.08
276165,0.01,0.01,1.00,1.65,-1.89,2.14
276181,0.01,0.01,1.00,1.59,-1.89,2.01
276197,0.01,0.01,1.00,1.65,-1.89,2.08
276213,0.01,0.01,1.00,1.65,-1.83,2.20
276229,0.01,0.01,1.00,1.59,-1.83,2.08
276245,0.01,0.01,1.00,1.59,-1.83,2.14
276261,0.01,0.01,1.00,1.59,-1.89,2.08
276277,0.01,0.01,1.00,1.65,-1.89,2.20
276293,0.01,0.01,1.00,1.71,-1.89,2.14
276309,0.01,0.01,1.00,1.59,-1.89,2.08
276325,0.01,0.01,1.00,1.53,-1.89,2.20
276341,0.01,0.01,1.00,1.65,-1.83,2.14
276357,0.01,0.01,1.00,1.65,-1.89,2.14
276373,0.01,0.01,1.00,1.59,-1.95,2.14
276389,0.01,0.01,1.00,1.65,-1.89,2.14
276405,0.01,0.01,1.00,1.65,-1.89,2.20
276421,0.01,0.01,1.00,1.59,-1.83,2.14
276437,0.01,0.01,1.00,1.65,-1.89,2.20
276453,0.01,0.01,1.00,1.65,-1.89,2.08
276469,0.01,0.01,1.00,1.65,-1.83,2.14
276485,0.01,0.01,1.00,1.65,-1.89,2.14
276501,0.01,0.01,1.00,1.65,-1.89,2.08
276517,0.01,0.01,1.00,1.65,-1.89,2.01
276533,0.01,0.01,1.00,1.65,-1.89,2.08
276549,0.01,0.01,1.00,1.53,-1.95,2.14
276565,0.01,0.01,1.00,1.65,-1.83,2.14
276581,0.01,0.01,1.00,1.65,-1.95,2.14
276597,0.01,0.01,1.00,1.59,-1.89,2.14
276613,0.01,0.01,1.00,1.59,-1.89,2.20
276629,0.01,0.01,1.00,1.65,-1.89,2.14
276645,0.01,0.01,1.00,1.59,-1.95,2.14
276661,0.01,0.01,1.00,1.65,-1.89,2.14
276677,0.01,0.01,1.00,1.59,-1.95,2.14
276693,0.01,0.01,1.00,1.53,-1.89,2.14
276709,0.01,0.01,1.00,1.65,-1.95,2.14
276725,0.01,0.01,1.00,1.65,-1.89,2.14
276741,0.01,0.01,1.00,1.65,-1.89,2.14
276757,0.01,0.01,1.00,1.65,-1.95,2.08
276773,0.01,0.01,1.00,1.59,-1.89,2.08
276789,0.01,0.01,1.00,1.65,-1.89,2.14
276805,0.01,0.01,1.00,1.59,-1.89,2.08
276821,0.01,0.01,1.00,1.59,-1.95,2.08
276837,0.01,0.01,1.00,1.65,-1.89,2.08
276853,0.00,0.01,1.00,1.59,-1.89,2.14
276869,0.01,0.01,1.00,1.59,-1.83,2.08
276885,0.01,0.01,1.00,1.59,-2.01,2.08
276901,0.01,0.01,1.00,1.59,-1.83,2.08
276917,0.01,0.01,1.00,1.59,-1.89,2.20
276933,0.01,0.01,1.00,1.65,-1.89,2.14
276949,0.01,0.01,1.00,1.59,-1.89,2.14
276965,0.01,0.01,1.00,1.65,-1.89,2.08
276981,0.01,0.01,1.00,1.65,-1.89,2.20
276997,0.01,0.01,1.00,1.65,-1.89,2.08
277013,0.01,0.01,1.00,1.59,-1.89,2.14
277029,0.00,0.01,1.00,1.65,-1.89,2.08
277045,0.01,0.01,1.00,1.65,-1.95,2.20
277061,0.01,0.01,1.00,1.65,-1.89,2.14
277077,0.01,0.01,1.00,1.59,-1.95,2.14
277093,0.01,0.01,1.00,1.71,-1.83,2.14
277109,0.01,0.01,1.00,1.65,-1.83,2.08
277125,0.01,0.01,1.00,1.65,-1.95,2.08
277141,0.01,0.01,1.00,1.59,-1.83,2.20
277157,0.01,0.01,1.00,1.59,-1.83,2.08
277173,0.01,0.01,1.00,1.59,-1.89,2.14
277189,0.01,0.01,1.00,1.59,-1.89,2.14
277205,0.01,0.01,1.00,1.65,-1.89,2.14
277221,0.01,0.01,1.00,1.65,-1.89,2.14
277237,0.01,0.01,1.00,1.59,-1.83,2.14
277253,0.01,0.01,1.00,1.65,-1.89,2.14
277269,0.01,0.01,1.00,1.59,-1.95,2.08
277285,0.01,0.01,1.00,1.59,-1.83,2.14
277301,0.01,0.01,1.00,1.65,-1.83,2.14
277317,0.01,0.01,1.00,1.65,-1.95,2.20
277333,0.01,0.01,1.00,1.65,-1.89,2.08
277349,0.01,0.01,1.00,1.65,-1.89,2.14
277365,0.01,0.01,1.00,1.65,-1.89,2.08
277381,0.01,0.01,1.00,1.59,-1.89,2.14
277397,0.01,0.01,1.00,1.53,-1.83,2.14
277413,0.01,0.01,1.00,1.65,-1.95,2.14
277429,0.00,0.01,1.00,1.59,-1.83,2.14
277445,0.01,0.01,1.00,1.59,-1.83,2.08
277461,0.01,0.01,1.00,1.59,-1.95,2.20
277477,0.01,0.01,1.00,1.59,-1.89,2.14
277493,0.01,0.01,1.00,1.65,-1.83,2.14
277509,0.01,0.01,1.00,1.59,-1.95,2.08
277525,0.01,0.01,1.00,1.65,-1.89,2.14
277541,0.01,0.01,1.00,1.65,-1.83,2.14
277557,0.01,0.01,1.00,1.65,-1.95,2.14
277573,0.01,0.01,1.00,1.59,-1.89,2.14
277589,0.01,0.01,1.00,1.59,-1.83,2.14
277605,0.01,0.01,1.00,1.59,-1.89,2.08
277621,0.01,0.01,1.01,1.59,-1.89,2.08
277637,0.01,0.01,1.00,1.59,-1.89,2.08
277653,0.01,0.01,1.00,1.59,-1.89,2.14
277669,0.01,0.00,1.00,1.59,-1.89,2.14
277685,0.01,0.01,1.00,1.65,-1.95,2.14
277701,0.01,0.01,1.00,1.65,-1.89,2.08
277717,0.01,0.01,1.00,1.59,-1.89,2.14
277733,0.01,0.01,1.00,1.65,-1.83,2.14
277749,0.01,0.01,1.00,1.59,-1.89,2.08
277765,0.01,0.01,1.00,1.59,-1.95,2.08
277781,0.01,0.01,1.00,1.59,-1.83,2.20
277797,0.01,0.01,1.00,1.59,-1.83,2.08
277813,0.01,0.01,1.00,1.59,-1.95,2.20
277829,0.01,0.01,1.00,1.59,-1.89,2.14
277845,0.01,0.01,1.00,1.65,-1.89,2.14
277861,0.00,0.01,1.00,1.59,-1.89,2.08
277877,0.01,0.01,1.00,1.65,-1.83,2.14
277893,0.01,0.01,1.00,1.65,-1.83,2.14
277909,0.01,0.01,1.00,1.59,-1.95,2.14
277925,0.01,0.01,1.00,1.59,-1.89,2.14
277941,0.01,0.01,1.00,1.59,-1.83,2.14
277957,0.01,0.01,1.00,1.65,-1.89,2.08
277973,0.01,0.01,1.00,1.59,-1.89,2.14
277989,0.01,0.01,1.00,1.59,-1.89,2.14
278005,0.01,0.00,1.00,1.59,-1.83,2.14
278021,0.01,0.01,1.00,1.71,-1.89,2.01
278037,0.01,0.01,1.00,1.71,-1.89,2.14
278053,0.01,0.01,1.00,1.59,-1.89,2.20
278069,0.01,0.01,1.00,1.65,-1.89,2.14
278085,0.01,0.01,1.00,1.65,-1.89,2.14
278101,0.01,0.01,1.00,1.65,-1.89,2.20
278117,0.01,0.01,1.00,1.59,-1.95,2.08
278133,0.01,0.01,1.00,1.59,-1.83,2.08
278149,0.01,0.01,1.00,1.65,-1.95,2.14
278165,0.01,0.01,1.00,1.65,-1.95,2.08
278181,0.01,0.01,1.00,1.59,-1.89,2.14
278197,0.01,0.01,1.00,1.65,-1.95,2.01
278213,0.01,0.01,1.00,1.65,-1.95,2.14
278229,0.01,0.01,1.00,1.59,-1.83,2.08
278245,0.01,0.01,1.00,1.59,-1.89,2.14
278261,0.01,0.01,1.00,1.59,-1.95,2.14
278277,0.01,0.01,1.00,1.59,-1.89,2.14
278293,0.01,0.01,1.00,1.65,-1.95,2.14
278309,0.01,0.01,1.00,1.59,-2.01,2.20
278325,0.01,0.01,1.00,1.65,-1.89,2.14
278341,0.01,0.01,1.00,1.65,-1.83,2.08
278357,0.01,0.01,1.00,1.59,-1.89,2.08
278373,0.01,0.01,1.00,1.53,-1.95,2.14
278389,0.01,0.01,1.00,1.59,-1.83,2.01
278405,0.01,0.01,1.00,1.65,-1.89,2.08
278421,0.01,0.01,1.00,1.59,-1.83,2.14
278437,0.01,0.01,1.00,1.59,-1.83,2.08
278453,0.01,0.01,1.00,1.59,-1.95,2.08
278469,0.01,0.01,1.00,1.59,-1.83,2.14
278485,0.01,0.01,1.00,1.59,-1.95,2.20
278501,0.01,0.01,1.00,1.65,-1.89,2.14
278517,0.01,0.01,1.00,1.59,-1.83,2.08
278533,0.01,0.01,1.00,1.59,-1.95,2.08
278549,0.01,0.01,1.00,1.53,-1.89,2.14
278565,0.01,0.01,1.00,1.65,-1.89,2.14
278581,0.01,0.01,1.00,1.53,-1.83,2.14
278597,0.01,0.01,1.00,1.65,-1.95,2.08
278613,0.01,0.01,1.00,1.65,-1.89,2.01
278629,0.01,0.01,1.00,1.59,-1.89,2.08
278645,0.01,0.01,1.00,1.65,-1.83,2.14
278661,0.01,0.01,1.00,1.65,-1.89,2.14
278677,0.01,0.01,1.00,1.59,-1.89,2.14
278693,0.01,0.01,1.00,1.59,-1.95,2.14
278709,0.01,0.01,1.00,1.59,-1.95,2.14
278725,0.01,0.01,1.00,1.59,-1.89,2.08
278741,0.01,0.01,1.00,1.65,-1.89,2.08
278757,0.01,0.01,1.00,1.59,-1.89,2.08
278773,0.01,0.01,1.00,1.59,-1.89,2.08
278789,0.01,0.01,1.00,1.59,-1.89,2.08
278805,0.01,0.01,1.00,1.65,-1.95,2.14
278821,0.01,0.01,1.00,1.59,-1.89,2.20
278837,0.01,0.01,1.00,1.71,-1.89,2.14
278853,0.01,0.01,1.00,1.59,-1.95,2.20
278869,0.01,0.01,1.00,1.65,-1.83,2.08
278885,0.01,0.01,1.00,1.65,-1.89,2.14
278901,0.01,0.01,1.00,1.65,-1.95,2.14
278917,0.01,0.01,1.00,1.59,-1.83,2.14
278933,0.01,0.01,1.00,1.65,-1.83,2.08
278949,0.01,0.01,1.00,1.59,-1.95,2.20
278965,0.01,0.01,1.00,1.65,-1.95,2.14
278981,0.01,0.01,1.00,1.65,-1.83,2.08
278997,0.01,0.01,1.00,1.65,-1.95,2.14
279013,0.01,0.01,1.00,1.59,-1.95,2.14
279029,0.01,0.01,1.00,1.59,-1.89,2.20
279045,0.01,0.01,1.00,1.59,-1.89,2.14
279061,0.01,0.01,1.00,1.59,-1.95,2.08
279077,0.01,0.01,1.00,1.65,-1.89,2.14
279093,0.01,0.01,1.00,1.65,-1.89,2.14
279109,0.01,0.01,1.00,1.59,-1.89,2.14
279125,0.01,0.01,1.00,1.59,-1.89,2.14
279141,0.01,0.01,1.00,1.65,-1.95,2.14
279157,0.01,0.00,1.00,1.59,-1.77,2.14
279173,0.01,0.01,1.00,1.59,-1.89,2.14
279189,0.01,0.01,1.00,1.59,-1.95,2.08
279205,0.01,0.01,1.00,1.65,-1.95,2.20
279221,0.01,0.01,1.00,1.59,-1.89,2.14
279237,0.01,0.01,1.00,1.65,-1.95,2.08
279253,0.01,0.01,1.00,1.65,-1.95,2.08
279269,0.01,0.01,1.00,1.59,-1.89,2.14
279285,0.01,0.01,1.00,1.65,-1.89,2.14
279301,0.01,0.01,1.00,1.53,-1.89,2.20
279317,0.01,0.01,1.00,1.65,-1.89,2.08
279333,0.01,0.01,1.00,1.65,-1.89,2.08
279349,0.01,0.01,1.00,1.65,-1.89,2.14
279365,0.01,0.01,1.00,1.65,-1.89,2.14
279381,0.01,0.01,1.00,1.65,-1.95,2.08
279397,0.01,0.01,1.00,1.65,-1.83,2.14
279413,0.01,0.01,1.00,1.65,-1.89,2.08
279429,0.01,0.01,1.00,1.65,-1.89,2.14
279445,0.01,0.01,1.00,1.59,-1.89,2.14
279461,0.01,0.01,1.00,1.53,-1.83,2.08
279477,0.01,0.01,1.00,1.53,-1.83,2.08
279493,0.01,0.01,1.00,1.65,-1.95,2.14
279509,0.01,0.01,1.00,1.65,-1.83,2.08
279525,0.01,0.01,1.00,1.65,-1.89,2.14
279541,0.01,0.01,1.00,1.65,-1.89,2.08
279557,0.01,0.01,1.00,1.53,-1.89,2.14
279573,0.01,0.01,1.00,1.59,-1.89,2.14
279589,0.01,0.01,1.00,1.65,-1.95,2.14
279605,0.01,0.01,1.00,1.71,-1.83,2.14
279621,0.01,0.01,1.00,1.65,-1.89,2.08
279637,0.01,0.01,1.00,1.59,-1.89,2.08
279653,0.01,0.01,1.00,1.59,-1.83,2.20
279669,0.01,0.01,1.00,1.65,-1.95,2.14
279685,0.01,0.01,1.00,1.59,-1.83,2.08
279701,0.01,0.01,1.00,1.65,-1.95,2.14
279717,0.01,0.01,1.00,1.59,-1.89,2.08
279733,0.01,0.01,1.00,1.59,-1.89,2.14
279749,0.01,0.01,1.00,1.65,-1.83,2.20
279765,0.01,0.01,1.00,1.59,-1.89,2.14
279781,0.01,0.01,1.00,1.65,-1.89,2.14
279797,0.01,0.01,1.00,1.59,-1.83,2.14
279813,0.01,0.01,1.00,1.59,-1.89,2.14
279829,0.01,0.01,1.00,1.59,-1.95,2.08
279845,0.01,0.01,1.00,1.59,-1.89,2.14
279861,0.01,0.01,1.00,1.65,-1.95,2.14
279877,0.01,0.01,1.01,1.65,-1.89,2.14
279893,0.01,0.01,1.00,1.71,-1.89,2.08
279909,0.00,0.01,1.00,1.59,-1.83,2.14
279925,0.01,0.01,1.00,1.71,-1.83,2.14
279941,0.01,0.01,1.00,1.65,-1.89,2.08
279957,0.01,0.01,1.00,1.59,-1.89,2.14
279973,0.01,0.01,1.00,1.65,-1.95,2.08
279989,0.01,0.01,1.00,1.59,-1.89,2.08
280005,0.01,0.01,1.00,1.65,-1.83,2.14