time,accel_x,accel_y,accel_z,gyro_x,gyro_y,gyro_z
190022,0.01,0.01,1.00,1.53,-1.83,2.14
190037,0.01,0.01,1.00,1.65,-1.89,2.14
190053,0.01,0.01,1.00,1.59,-1.89,2.14
190069,0.01,0.01,1.00,1.65,-1.89,2.14
190085,0.01,0.01,1.00,1.65,-1.89,2.20
190101,0.01,0.01,1.00,1.65,-1.95,2.14
190117,0.01,0.01,1.00,1.65,-1.89,2.14
190133,0.01,0.01,1.00,1.59,-1.83,2.14
190149,0.01,0.01,1.00,1.59,-1.95,2.08
190165,0.01,0.01,1.00,1.65,-1.89,2.14
190181,0.01,0.01,1.00,1.65,-1.83,2.20
190197,0.01,0.01,1.00,1.65,-1.83,2.20
190213,0.01,0.01,1.00,1.65,-1.83,2.14
190229,0.01,0.01,1.00,1.65,-1.83,2.08
190245,0.01,0.01,1.00,1.65,-1.83,2.08
190261,0.01,0.01,1.00,1.65,-1.89,2.08
190277,0.01,0.01,1.00,1.65,-1.95,2.14
190293,0.01,0.01,1.00,1.59,-1.95,2.08
190309,0.01,0.01,1.00,1.59,-1.89,2.14
190325,0.01,0.01,1.00,1.65,-1.95,2.14
190341,0.01,0.01,1.00,1.65,-1.83,2.08
190357,0.01,0.01,1.00,1.65,-1.95,2.14
190373,0.01,0.01,1.00,1.65,-1.89,2.14
190389,0.01,0.01,1.00,1.59,-1.89,2.14
190405,0.01,0.01,1.00,1.65,-1.89,2.08
190421,0.01,0.01,1.00,1.65,-1.89,2.08
190437,0.01,0.01,1.00,1.65,-1.89,2.14
190453,0.01,0.01,1.00,1.65,-1.89,2.14
190469,0.01,0.01,1.00,1.59,-1.95,2.14
190485,0.01,0.01,1.00,1.65,-1.89,2.20
190501,0.01,0.01,1.00,1.65,-1.89,2.14
190517,0.01,0.01,1.00,1.65,-1.95,2.14
190533,0.01,0.01,1.00,1.65,-1.89,2.14
190549,0.01,0.01,1.00,1.59,-1.95,2.14
190565,0.01,0.01,1.00,1.65,-1.83,2.08
190581,0.01,0.01,1.00,1.65,-1.95,2.08
190597,0.01,0.01,1.00,1.65,-1.89,2.14
190613,0.01,0.01,1.00,1.59,-1.83,2.20
190629,0.01,0.01,1.00,1.65,-1.83,2.08
190645,0.01,0.01,1.00,1.59,-1.89,2.14
190661,0.01,0.01,1.00,1.59,-1.89,2.14
190677,0.01,0.01,1.00,1.59,-1.89,2.14
190693,0.01,0.01,1.00,1.65,-1.95,2.14
190709,0.01,0.01,1.00,1.65,-1.89,2.14
190725,0.01,0.01,1.00,1.65,-1.89,2.14
190741,0.01,0.01,1.00,1.65,-1.89,2.14
190757,0.01,0.01,1.00,1.59,-1.89,2.14
190773,0.01,0.01,1.00,1.59,-1.89,2.14
190789,0.01,0.01,1.00,1.65,-1.95,2.14
190805,0.01,0.01,1.00,1.65,-1.89,2.20
190821,0.01,0.01,1.00,1.59,-1.83,2.08
190837,0.01,0.01,1.00,1.53,-1.83,2.14
190853,0.01,0.01,1.00,1.65,-1.95,2.14
190869,0.01,0.01,1.00,1.59,-1.95,2.20
190885,0.01,0.01,1.00,1.59,-1.83,2.14
190901,0.01,0.01,1.00,1.59,-1.95,2.14
190917,0.01,0.01,1.00,1.65,-1.83,2.08
190933,0.01,0.01,1.00,1.59,-1.83,2.14
190949,0.01,0.01,1.00,1.65,-1.95,2.14
190965,0.01,0.01,1.00,1.65,-1.95,2.20
190981,0.01,0.01,1.00,1.59,-1.83,2.14
190997,0.01,0.01,1.00,1.59,-1.89,2.14
191013,0.01,0.01,1.00,1.59,-1.95,2.14
191029,0.01,0.01,1.00,1.59,-1.89,2.14
191045,0.01,0.01,1.00,1.65,-1.89,2.20
191061,0.01,0.01,1.00,1.59,-1.83,2.20
191077,0.01,0.01,1.00,1.65,-1.89,2.08
191093,0.01,0.01,1.00,1.65,-1.95,2.14
191109,0.01,0.01,1.00,1.59,-1.83,2.20
191125,0.01,0.01,1.00,1.59,-1.89,2.14
191141,0.01,0.01,1.00,1.59,-1.89,2.08
191157,0.01,0.01,1.00,1.65,-1.89,2.14
191173,0.01,0.01,1.00,1.65,-1.89,2.14
191189,0.01,0.01,1.00,1.59,-1.89,2.14
191205,0.01,0.01,1.00,1.65,-1.83,2.14
191221,0.01,0.01,1.00,1.65,-1.89,2.08
191237,0.01,0.01,1.00,1.65,-1.89,2.14
191253,0.01,0.01,1.00,1.65,-1.95,2.08
191269,0.01,0.01,1.00,1.59,-1.95,2.08
191285,0.01,0.01,1.00,1.59,-1.95,2.08
191301,0.01,0.00,1.00,1.65,-1.89,2.14
191317,0.01,0.01,1.00,1.59,-1.89,2.14
191333,0.00,0.01,1.00,1.59,-1.89,2.20
191349,0.01,0.01,1.00,1.59,-1.89,2.14
191365,0.01,0.01,1.00,1.65,-1.89,2.08
191381,0.01,0.01,1.00,1.59,-1.89,2.14
191397,0.01,0.01,1.00,1.65,-1.89,2.14
191413,0.01,0.01,1.00,1.65,-1.89,2.14
191429,0.01,0.00,1.00,1.65,-1.89,2.08
191445,0.01,0.01,1.00,1.65,-1.95,2.08
191461,0.01,0.01,1.00,1.59,-1.89,2.14
191477,0.01,0.01,1.00,1.65,-1.83,2.14
191493,0.01,0.01,1.00,1.65,-1.95,2.20
191509,0.01,0.01,1.00,1.59,-1.89,2.14
191525,0.01,0.01,1.00,1.65,-1.89,2.14
191541,0.01,0.01,1.00,1.65,-1.89,2.14
191557,0.01,0.01,1.00,1.65,-1.89,2.14
191573,0.01,0.00,1.00,1.65,-1.95,2.08
191589,0.01,0.01,1.00,1.59,-1.95,2.14
191605,0.01,0.01,1.00,1.59,-1.95,2.14
191621,0.01,0.01,1.00,1.59,-1.95,2.14
191637,0.01,0.01,1.00,1.65,-1.89,2.08
191653,0.01,0.01,1.00,1.65,-1.89,2.14
191669,0.01,0.01,1.00,1.65,-1.89,2.20
191685,0.01,0.01,1.00,1.71,-1.89,2.14
191701,0.01,0.01,1.01,1.71,-1.89,2.14
191717,0.01,0.01,1.00,1.65,-1.95,2.14
191733,0.01,0.01,1.00,1.65,-1.95,2.20
191749,0.01,0.01,1.00,1.59,-1.89,2.14
191765,0.01,0.01,1.00,1.59,-1.95,2.08
191781,0.01,0.01,1.00,1.65,-1.89,2.14
191797,0.01,0.01,1.00,1.65,-1.83,2.08
191813,0.01,0.01,1.00,1.71,-1.83,2.08
191829,0.01,0.01,1.00,1.65,-1.83,2.08
191845,0.01,0.01,1.00,1.65,-1.89,2.14
191861,0.01,0.01,1.00,1.59,-1.89,2.01
191877,0.01,0.01,1.00,1.71,-1.89,2.14
191893,0.01,0.01,1.01,1.71,-1.95,2.08
191909,0.01,0.01,1.00,1.59,-1.89,2.01
191925,0.01,0.01,1.00,1.65,-1.83,2.20
191941,0.01,0.01,1.00,1.65,-1.89,2.14
191957,0.01,0.01,1.00,1.71,-1.95,2.20
191973,0.01,0.01,1.00,1.65,-1.83,2.14
191989,0.01,0.01,1.00,1.65,-1.89,2.14
192005,0.01,0.01,1.00,1.65,-1.95,2.14
192021,0.01,0.01,1.00,1.59,-1.83,2.08
192037,0.01,0.01,1.00,1.65,-1.89,2.14
192053,0.01,0.01,1.00,1.59,-1.95,2.14
192069,0.01,0.01,1.00,1.59,-1.83,2.08
192085,0.01,0.01,1.00,1.59,-1.89,2.14
192101,0.01,0.01,1.00,1.59,-1.89,2.14
192117,0.01,0.01,1.00,1.65,-1.89,2.14
192133,0.01,0.01,1.01,1.65,-1.95,2.14
192149,0.01,0.01,1.00,1.65,-1.95,2.14
192165,0.01,0.01,1.00,1.65,-1.83,2.14
192181,0.01,0.01,1.00,1.65,-1.89,2.08
192197,0.01,0.01,1.00,1.59,-1.89,2.14
192213,0.01,0.01,1.00,1.65,-1.83,2.08
192229,0.01,0.01,1.00,1.65,-1.89,2.14
192245,0.01,0.01,1.00,1.65,-1.89,2.08
192261,0.01,0.01,1.00,1.65,-1.89,2.14
192277,0.01,0.01,1.00,1.65,-1.83,2.14
192293,0.01,0.01,1.00,1.71,-1.89,2.14
192309,0.01,0.01,1.00,1.65,-1.95,2.08
192325,0.01,0.01,1.00,1.59,-1.89,2.14
192341,0.01,0.01,1.00,1.59,-1.89,2.08
192357,0.01,0.01,1.00,1.53,-1.83,2.14
192373,0.01,0.01,1.00,1.59,-1.89,2.14
192389,0.01,0.01,1.00,1.65,-1.89,2.14
192405,0.01,0.01,1.00,1.65,-1.95,2.14
192421,0.01,0.01,1.00,1.65,-1.89,2.14
192437,0.01,0.01,1.00,1.65,-1.83,2.14
192453,0.01,0.01,1.00,1.59,-1.89,2.08
192469,0.01,0.01,1.00,1.65,-1.95,2.08
192485,0.01,0.01,1.00,1.65,-1.89,2.14
192501,0.01,0.01,1.00,1.53,-1.89,2.20
192517,0.01,0.01,1.00,1.53,-1.83,2.08
192533,0.01,0.01,1.00,1.65,-1.89,2.14
192549,0.01,0.01,1.00,1.65,-1.83,2.14
192565,0.01,0.01,1.00,1.65,-1.95,2.20
192581,0.01,0.01,1.00,1.71,-1.95,2.14
192597,0.01,0.01,1.00,1.65,-1.89,2.08
192613,0.01,0.01,1.00,1.53,-1.89,2.08
192629,0.01,0.01,1.00,1.59,-1.89,2.14
192645,0.01,0.01,1.00,1.59,-1.89,2.08
192661,0.01,0.01,1.00,1.59,-1.89,2.08
192677,0.01,0.01,1.00,1.65,-1.95,2.14
192693,0.01,0.01,1.00,1.59,-1.95,2.14
192709,0.01,0.01,1.00,1.65,-1.83,2.14
192725,0.01,0.01,1.00,1.65,-1.89,2.14
192741,0.01,0.01,1.00,1.59,-1.89,2.01
192757,0.01,0.01,1.00,1.71,-1.89,2.20
192773,0.01,0.01,1.00,1.71,-1.89,2.08
192789,0.01,0.01,1.00,1.65,-1.95,2.01
192805,0.01,0.01,1.00,1.53,-1.89,2.14
192821,0.01,0.01,1.00,1.65,-1.89,2.14
192837,0.01,0.01,1.00,1.65,-1.95,2.08
192853,0.01,0.01,1.00,1.71,-1.89,2.14
192869,0.01,0.01,1.00,1.59,-1.89,2.08
192885,0.01,0.01,1.00,1.65,-1.89,2.14
192901,0.01,0.01,1.00,1.59,-1.95,2.20
192917,0.01,0.01,1.00,1.59,-1.89,2.08
192933,0.00,0.01,1.00,1.65,-1.89,2.14
192949,0.01,0.01,1.01,1.59,-1.95,2.14
192965,0.01,0.01,1.00,1.65,-1.95,2.20
192981,0.01,0.01,1.00,1.59,-1.89,2.14
192997,0.00,0.01,1.00,1.59,-1.83,2.14
193013,0.01,0.01,1.00,1.65,-1.95,2.08
193029,0.01,0.01,1.00,1.71,-1.89,2.14
193045,0.01,0.01,1.00,1.59,-1.83,2.14
193061,0.01,0.01,1.00,1.65,-1.95,2.14
193077,0.01,0.01,1.00,1.65,-1.89,2.14
193093,0.01,0.01,1.01,1.59,-1.95,2.08
193109,0.01,0.01,1.00,1.59,-1.83,2.14
193125,0.01,0.01,1.00,1.59,-1.83,2.14
193141,0.01,0.01,1.00,1.65,-1.89,2.08
193157,0.01,0.01,1.00,1.59,-1.83,2.14
193173,0.01,0.01,1.00,1.65,-1.89,2.14
193189,0.01,0.01,1.00,1.71,-1.83,2.08
193205,0.01,0.01,1.00,1.59,-1.89,2.14
193221,0.01,0.01,1.00,1.65,-1.89,2.14
193237,0.01,0.01,1.00,1.59,-1.89,2.14
193253,0.01,0.01,1.00,1.59,-1.83,2.20
193269,0.01,0.01,1.00,1.65,-1.89,2.14
193285,0.01,0.01,1.00,1.59,-1.89,2.20
193301,0.01,0.01,1.00,1.71,-1.83,2.14
193317,0.01,0.01,1.00,1.65,-1.89,2.08
193333,0.01,0.01,1.00,1.65,-1.89,2.14
193349,0.01,0.01,1.00,1.59,-1.89,2.08
193365,0.01,0.01,1.00,1.65,-1.89,2.08
193381,0.01,0.01,1.00,1.65,-1.89,2.14
193397,0.01,0.01,1.00,1.65,-1.83,2.20
193413,0.01,0.01,1.00,1.59,-1.83,2.14
193429,0.01,0.01,1.00,1.59,-1.89,2.14
193445,0.01,0.01,1.00,1.65,-1.89,2.14
193461,0.01,0.01,1.00,1.59,-1.89,2.08
193477,0.01,0.01,1.00,1.65,-1.89,2.08
193493,0.01,0.01,1.00,1.65,-1.89,2.14
193509,0.01,0.01,1.00,1.59,-1.89,2.14
193525,0.01,0.01,1.00,1.59,-1.89,2.14
193541,0.01,0.01,1.00,1.59,-1.89,2.14
193557,0.01,0.01,1.00,1.59,-1.83,2.14
193573,0.01,0.01,1.00,1.59,-1.95,2.08
193589,0.01,0.01,1.00,1.65,-1.95,2.14
193605,0.01,0.01,1.00,1.59,-1.83,2.14
193621,0.01,0.01,1.00,1.71,-1.89,2.08
193637,0.01,0.01,1.00,1.65,-1.95,2.14
193653,0.01,0.01,1.00,1.59,-1.89,2.08
193669,0.01,0.01,1.00,1.59,-1.89,2.14
193685,0.01,0.01,1.00,1.59,-1.89,2.08
193701,0.01,0.01,1.00,1.59,-1.89,2.14
193717,0.01,0.01,1.00,1.59,-1.83,2.14
193733,0.01,0.01,1.00,1.59,-1.83,2.20
193749,0.01,0.01,1.00,1.65,-1.89,2.14
193765,0.01,0.01,1.00,1.65,-1.83,2.26
193781,0.01,0.01,1.00,1.65,-1.89,2.14
193797,0.01,0.01,1.00,1.65,-1.89,2.08
193813,0.01,0.01,1.00,1.65,-1.89,2.08
193829,0.01,0.01,1.00,1.59,-1.89,2.14
193845,0.01,0.01,1.00,1.59,-1.83,2.14
193861,0.01,0.01,1.00,1.71,-1.95,2.14
193877,0.01,0.01,1.00,1.65,-1.95,2.08
193893,0.01,0.01,1.00,1.59,-1.83,2.08
193909,0.01,0.01,1.00,1.65,-1.83,2.08
193925,0.01,0.01,1.00,1.71,-1.89,2.14
193941,0.01,0.01,1.00,1.59,-1.89,2.14
193957,0.01,0.01,1.00,1.65,-1.89,2.14
193973,0.01,0.01,1.00,1.59,-1.89,2.14
193989,0.01,0.01,1.00,1.59,-1.83,2.14
194005,0.01,0.01,1.00,1.65,-1.95,2.08
194021,0.01,0.01,1.00,1.65,-1.95,2.14
194037,0.01,0.01,1.00,1.65,-1.89,2.14
194053,0.01,0.01,1.00,1.59,-1.89,2.14
194069,0.01,0.01,1.00,1.59,-1.89,2.14
194085,0.01,0.01,1.00,1.71,-1.89,2.14
194101,0.01,0.01,1.00,1.65,-1.89,2.14
194117,0.01,0.01,1.00,1.65,-1.95,2.08
194133,0.01,0.01,1.00,1.65,-1.95,2.14
194149,0.01,0.01,1.00,1.59,-1.89,2.14
194165,0.01,0.01,1.00,1.65,-1.95,2.14
194181,0.01,0.01,1.00,1.65,-1.89,2.14
194197,0.01,0.01,1.00,1.65,-1.89,2.08
194213,0.01,0.01,1.00,1.59,-1.89,2.08
194229,0.01,0.01,1.00,1.65,-1.95,2.14
194245,0.01,0.01,1.00,1.59,-1.89,2.08
194261,0.01,0.01,1.00,1.65,-1.77,2.08
194277,0.01,0.01,1.00,1.65,-1.89,2.08
194293,0.01,0.01,1.00,1.59,-1.89,2.14
194309,0.01,0.01,1.00,1.53,-1.89,2.08
194325,0.01,0.01,1.00,1.65,-1.89,2.14
194341,0.01,0.01,1.00,1.65,-1.83,2.20
194357,0.01,0.01,1.00,1.65,-1.83,2.14
194373,0.01,0.01,1.00,1.65,-1.83,2.14
194389,0.01,0.01,1.00,1.65,-1.89,2.14
194405,0.01,0.01,1.00,1.65,-1.89,2.14
194421,0.01,0.01,1.00,1.59,-1.89,2.14
194437,0.01,0.01,1.00,1.59,-1.89,2.14
194453,0.01,0.01,1.00,1.65,-1.89,2.08
194469,0.01,0.01,1.00,1.59,-1.95,2.08
194485,0.01,0.01,1.00,1.65,-1.89,2.08
194501,0.01,0.01,1.00,1.59,-1.83,2.08
194517,0.01,0.01,1.00,1.65,-1.95,2.14
194533,0.01,0.01,1.00,1.65,-1.89,2.20
194549,0.01,0.01,1.00,1.59,-1.89,2.14
194565,0.01,0.01,1.00,1.65,-1.95,2.20
194581,0.01,0.01,1.00,1.65,-1.83,2.08
194597,0.01,0.01,1.00,1.59,-1.89,2.14
194613,0.01,0.01,1.00,1.65,-1.89,2.14
194629,0.01,0.01,1.00,1.65,-1.83,2.08
194645,0.01,0.01,1.00,1.59,-1.83,2.14
194661,0.01,0.01,1.00,1.65,-1.89,2.20
194677,0.01,0.01,1.00,1.65,-1.89,2.14
194693,0.01,0.01,1.00,1.65,-1.89,2.14
194709,0.01,0.01,1.00,1.59,-1.83,2.14
194725,0.01,0.01,1.00,1.65,-1.89,2.14
194741,0.01,0.01,1.00,1.59,-1.83,2.14
194757,0.01,0.01,1.00,1.59,-1.95,2.14
194773,0.01,0.01,1.00,1.59,-1.95,2.14
194789,0.01,0.01,1.00,1.65,-1.89,2.08
194805,0.01,0.01,1.00,1.59,-1.89,2.14
194821,0.01,0.01,1.00,1.53,-1.89,2.14
194837,0.01,0.01,1.00,1.65,-1.83,2.14
194853,0.01,0.01,1.00,1.65,-1.95,2.14
194869,0.01,0.01,1.00,1.59,-1.95,2.08
194885,0.00,0.01,1.00,1.59,-1.89,2.14
194901,0.01,0.01,1.00,1.65,-1.95,2.14
194917,0.01,0.01,1.00,1.59,-1.89,2.14
194933,0.01,0.01,1.00,1.59,-1.83,2.20
194949,0.01,0.01,1.00,1.65,-1.89,2.14
194965,0.01,0.01,1.00,1.65,-1.89,2.14
194981,0.01,0.01,1.00,1.65,-1.89,2.14
194997,0.01,0.01,1.00,1.59,-1.89,2.14
195013,0.01,0.01,1.00,1.65,-1.95,2.08
195029,0.01,0.01,1.00,1.65,-1.89,2.20
195045,0.01,0.01,1.00,1.65,-1.89,2.14
195061,0.01,0.01,1.00,1.65,-1.83,2.14
195077,0.01,0.01,1.00,1.65,-1.83,2.01
195093,0.01,0.01,1.00,1.65,-1.89,2.14
195109,0.01,0.01,1.00,1.65,-1.83,2.14
195125,0.01,0.01,1.00,1.59,-1.83,2.08
195141,0.01,0.01,1.00,1.59,-1.89,2.14
195157,0.01,0.01,1.00,1.59,-1.89,2.14
195173,0.01,0.01,1.00,1.59,-1.83,2.08
195189,0.01,0.01,1.00,1.65,-1.89,2.14
195205,0.01,0.01,1.00,1.65,-1.83,2.20
195221,0.01,0.01,1.00,1.59,-1.89,2.20
195237,0.01,0.01,1.00,1.59,-1.83,2.14
195253,0.01,0.01,1.00,1.65,-1.83,2.20
195269,0.01,0.01,1.00,1.59,-1.95,2.08
195285,0.01,0.01,1.00,1.65,-1.95,2.14
195301,0.01,0.01,1.00,1.65,-1.95,2.08
195317,0.01,0.01,1.00,1.65,-1.83,2.20
195333,0.01,0.01,1.00,1.65,-1.89,2.14
195349,0.01,0.01,1.00,1.65,-1.89,2.08
195365,0.01,0.01,1.00,1.59,-1.89,2.14
195381,0.01,0.01,1.00,1.65,-1.95,2.08
195397,0.01,0.01,1.00,1.59,-1.89,2.08
195413,0.01,0.01,1.00,1.65,-1.95,2.14
195429,0.01,0.01,1.00,1.59,-1.89,2.08
195445,0.01,0.01,1.00,1.65,-1.89,2.08
195461,0.01,0.01,1.00,1.65,-1.89,2.08
195477,0.01,0.01,1.00,1.59,-1.83,2.08
195493,0.01,0.01,1.00,1.59,-1.89,2.20
195509,0.01,0.01,1.00,1.65,-1.89,2.08
195525,0.01,0.01,1.00,1.65,-1.89,2.14
195541,0.01,0.01,1.00,1.59,-1.89,2.14
195557,0.01,0.01,1.00,1.65,-1.95,2.14
195573,0.01,0.01,1.00,1.65,-1.89,2.14
195589,0.01,0.01,1.00,1.65,-1.83,2.14
195605,0.01,0.01,1.00,1.65,-1.89,2.14
195621,0.01,0.01,1.00,1.65,-1.83,2.20
195637,0.01,0.01,1.00,1.59,-1.89,2.14
195653,0.01,0.01,1.00,1.65,-1.89,2.08
195669,0.01,0.01,1.00,1.65,-1.83,2.14
195685,0.01,0.01,1.00,1.59,-1.89,2.08
195701,0.01,0.01,1.00,1.59,-1.95,2.14
195717,0.01,0.01,1.00,1.59,-1.89,2.20
195733,0.01,0.01,1.00,1.65,-2.01,2.14
195749,0.01,0.01,1.00,1.59,-1.89,2.01
195765,0.01,0.01,1.00,1.65,-1.83,2.01
195781,0.01,0.01,1.00,1.59,-1.89,2.08
195797,0.01,0.01,1.01,1.65,-1.89,2.14
195813,0.01,0.01,1.00,1.65,-1.83,2.14
195829,0.01,0.01,1.00,1.59,-1.89,2.14
195845,0.01,0.01,1.00,1.59,-1.95,2.14
195861,0.01,0.01,1.00,1.59,-1.89,2.14
195877,0.01,0.01,1.00,1.65,-1.89,2.08
195893,0.01,0.01,1.00,1.59,-1.89,2.14
195909,0.01,0.01,1.00,1.65,-1.95,2.08
195925,0.01,0.01,1.00,1.59,-1.89,2.14
195941,0.01,0.01,1.00,1.59,-1.89,2.14
195957,0.01,0.01,1.00,1.59,-1.89,2.14
195973,0.01,0.01,1.00,1.59,-1.89,2.08
195989,0.01,0.01,1.00,1.65,-1.89,2.01
196005,0.01,0.01,1.00,1.65,-1.89,2.08
196021,0.01,0.01,1.00,1.59,-1.89,2.14
196037,0.01,0.01,1.00,1.65,-1.89,2.08
196053,0.01,0.01,1.00,1.71,-1.95,2.14
196069,0.01,0.01,1.00,1.59,-1.83,2.14
196085,0.01,0.01,1.00,1.65,-1.89,2.20
196101,0.01,0.01,1.00,1.59,-1.89,2.14
196117,0.01,0.01,1.00,1.65,-1.83,2.14
196133,0.01,0.01,1.00,1.59,-1.83,2.14
196149,0.01,0.01,1.00,1.59,-1.89,2.14
196165,0.01,0.01,1.00,1.65,-1.89,2.14
196181,0.01,0.01,1.00,1.65,-1.89,2.14
196197,0.01,0.01,1.00,1.65,-1.83,2.20
196213,0.01,0.01,1.00,1.59,-1.89,2.20
196229,0.01,0.01,1.00,1.65,-1.89,2.14
196245,0.01,0.01,1.00,1.65,-1.89,2.08
196261,0.01,0.01,1.00,1.59,-1.89,2.14
196277,0.01,0.01,1.00,1.71,-1.95,2.20
196293,0.01,0.01,1.00,1.71,-1.89,2.08
196309,0.01,0.01,1.00,1.65,-1.89,2.14
196325,0.01,0.01,1.00,1.59,-1.95,2.14
196341,0.01,0.01,1.00,1.59,-1.89,2.08
196357,0.01,0.01,1.00,1.65,-1.83,2.14
196373,0.01,0.01,1.00,1.65,-1.83,2.14
196389,0.01,0.01,1.00,1.59,-1.95,2.08
196405,0.01,0.01,1.00,1.65,-1.89,2.14
196421,0.01,0.01,1.00,1.71,-1.83,2.08
196437,0.01,0.01,1.00,1.65,-1.89,2.20
196453,0.01,0.01,1.00,1.59,-1.89,2.14
196469,0.01,0.01,1.00,1.59,-1.89,2.08
196485,0.01,0.01,1.00,1.65,-1.89,2.14
196501,0.01,0.01,1.00,1.71,-1.89,2.14
196517,0.01,0.01,1.00,1.65,-1.89,2.14
196533,0.01,0.01,1.00,1.59,-1.95,2.14
196549,0.01,0.01,1.00,1.65,-1.95,2.14
196565,0.01,0.01,1.00,1.65,-1.89,2.20
196581,0.01,0.01,1.00,1.65,-2.01,2.20
196597,0.01,0.01,1.00,1.65,-1.83,2.14
196613,0.01,0.01,1.00,1.65,-1.89,2.08
196629,0.01,0.01,1.00,1.65,-1.89,2.14
196645,0.01,0.01,1.00,1.65,-1.89,2.14
196661,0.01,0.01,1.00,1.59,-1.83,2.14
196677,0.01,0.01,1.00,1.65,-1.89,2.01
196693,0.01,0.01,1.00,1.65,-1.89,2.08
196709,0.01,0.01,1.00,1.65,-1.89,2.14
196725,0.01,0.01,1.00,1.59,-1.83,2.14
196741,0.01,0.01,1.00,1.59,-1.89,2.14
196757,0.01,0.01,1.00,1.65,-1.89,2.14
196773,0.01,0.01,1.00,1.65,-1.89,2.14
196789,0.01,0.01,1.00,1.65,-1.89,2.14
196805,0.01,0.01,1.00,1.59,-1.89,2.08
196821,0.01,0.01,1.00,1.65,-1.83,2.14
196837,0.01,0.01,1.00,1.65,-1.89,2.14
196853,0.01,0.01,1.00,1.59,-1.95,2.14
196869,0.01,0.01,1.00,1.65,-1.89,2.14
196885,0.01,0.01,1.00,1.59,-1.95,2.14
196901,0.01,0.01,1.00,1.65,-1.89,2.14
196917,0.01,0.01,1.00,1.71,-1.89,2.14
196933,0.01,0.01,1.00,1.65,-1.89,2.14
196949,0.01,0.01,1.00,1.65,-1.89,2.14
196965,0.01,0.01,1.00,1.59,-1.89,2.14
196981,0.01,0.01,1.00,1.59,-1.89,2.20
196997,0.01,0.01,1.00,1.65,-1.95,2.08
197013,0.01,0.01,1.00,1.59,-1.83,2.08
197029,0.01,0.01,1.00,1.65,-1.89,2.20
197045,0.01,0.01,1.00,1.59,-1.89,2.14
197061,0.01,0.01,1.00,1.65,-1.89,2.08
197077,0.01,0.01,1.00,1.59,-1.95,2.08
197093,0.01,0.01,1.00,1.65,-1.95,2.14
197109,0.01,0.01,1.00,1.71,-1.83,2.08
197125,0.01,0.01,1.00,1.59,-1.95,2.08
197141,0.01,0.01,1.00,1.59,-1.83,2.20
197157,0.01,0.01,1.00,1.65,-1.83,2.08
197173,0.01,0.01,1.00,1.65,-1.89,2.08
197189,0.01,0.01,1.00,1.59,-1.89,2.14
197205,0.00,0.01,1.00,1.59,-1.89,2.20
197221,0.01,0.01,1.00,1.65,-1.95,2.14
197237,0.01,0.01,1.00,1.65,-1.89,2.08
197253,0.01,0.01,1.00,1.59,-1.83,2.14
197269,0.01,0.01,1.00,1.65,-1.89,2.08
197285,0.01,0.01,1.00,1.65,-1.95,2.14
197301,0.01,0.01,1.00,1.59,-1.83,2.14
197317,0.01,0.01,1.00,1.59,-1.83,2.20
197333,0.01,0.01,1.00,1.65,-1.95,2.20
197349,0.01,0.01,1.00,1.65,-1.89,2.14
197365,0.01,0.01,1.00,1.65,-1.95,2.08
197381,0.01,0.01,1.00,1.59,-1.89,2.08
197397,0.01,0.01,1.00,1.59,-1.89,2.14
197413,0.01,0.01,1.00,1.65,-1.83,2.20
197429,0.01,0.01,1.00,1.65,-1.83,2.08
197445,0.01,0.01,1.00,1.65,-1.89,2.14
197461,0.01,0.01,1.00,1.59,-1.89,2.14
197477,0.01,0.01,1.00,1.65,-1.89,2.20
197493,0.01,0.01,1.00,1.59,-1.89,2.08
197509,0.01,0.01,1.00,1.53,-1.89,2.08
197525,0.01,0.01,1.00,1.59,-1.89,2.14
197541,0.01,0.01,1.00,1.65,-1.89,2.14
197557,0.01,0.01,1.00,1.59,-1.95,2.14
197573,0.01,0.01,1.00,1.59,-1.89,2.14
197589,0.01,0.01,1.00,1.59,-1.89,2.08
197605,0.01,0.01,1.00,1.59,-1.89,2.14
197621,0.01,0.01,1.00,1.59,-1.95,2.14
197637,0.01,0.01,1.00,1.65,-1.95,2.08
197653,0.01,0.01,1.00,1.65,-1.89,2.08
197669,0.01,0.01,1.00,1.65,-1.89,2.01
197685,0.01,0.01,1.00,1.59,-1.83,2.14
197701,0.01,0.01,1.00,1.53,-1.95,2.14
197717,0.01,0.01,1.00,1.59,-1.95,2.08
197733,0.01,0.01,1.00,1.65,-1.89,2.14
197749,0.01,0.01,1.00,1.65,-1.89,2.08
197765,0.01,0.01,1.00,1.59,-1.89,2.20
197781,0.01,0.01,1.00,1.65,-1.89,2.14
197797,0.01,0.01,1.00,1.65,-1.83,2.14
197813,0.01,0.01,1.00,1.65,-1.89,2.08
197829,0.01,0.01,1.00,1.65,-1.95,2.08
197845,0.01,0.01,1.00,1.59,-1.89,2.08
197861,0.01,0.01,1.00,1.65,-1.83,2.14
197877,0.01,0.01,1.00,1.59,-1.83,2.14
197893,0.01,0.01,1.00,1.53,-1.83,2.14
197909,0.01,0.01,1.00,1.65,-2.01,2.14
197925,0.01,0.01,1.00,1.71,-1.89,2.08
197941,0.01,0.01,1.00,1.65,-1.89,2.08
197957,0.01,0.01,1.00,1.59,-1.89,2.14
197973,0.01,0.01,1.00,1.59,-1.89,2.14
197989,0.01,0.01,1.00,1.59,-1.95,2.14
198005,0.01,0.01,1.00,1.71,-1.89,2.14
198021,0.01,0.01,1.00,1.59,-1.89,2.14
198037,0.01,0.01,1.00,1.65,-1.95,2.14
198053,0.01,0.01,1.00,1.65,-1.83,2.14
198069,0.01,0.01,1.00,1.65,-1.95,2.14
198085,0.01,0.01,1.00,1.65,-1.95,2.14
198101,0.01,0.01,1.00,1.65,-1.89,2.14
198117,0.01,0.01,1.00,1.59,-1.77,2.14
198133,0.01,0.01,1.00,1.59,-1.89,2.14
198149,0.01,0.01,1.00,1.65,-1.83,2.14
198165,0.01,0.01,1.00,1.65,-1.89,2.14
198181,0.00,0.01,1.00,1.59,-1.89,2.14
198197,0.01,0.01,1.00,1.59,-1.95,2.14
198213,0.01,0.01,1.00,1.53,-1.83,2.14
198229,0.01,0.01,1.00,1.59,-1.95,2.14
198245,0.01,0.01,1.00,1.59,-1.89,2.14
198261,0.01,0.01,1.00,1.59,-1.89,2.14
198277,0.01,0.01,1.00,1.59,-1.89,2.08
198293,0.01,0.01,1.00,1.65,-1.95,2.01
198309,0.01,0.01,1.00,1.59,-1.89,2.14
198325,0.01,0.01,1.00,1.65,-1.89,2.14
198341,0.01,0.01,1.00,1.59,-1.89,2.08
198357,0.01,0.01,1.00,1.59,-1.89,2.08
198373,0.01,0.01,1.00,1.59,-1.89,2.08
198389,0.01,0.01,1.00,1.65,-1.89,2.14
198405,0.01,0.01,1.00,1.71,-1.89,2.14
198421,0.01,0.01,1.00,1.71,-1.95,2.14
198437,0.01,0.01,1.00,1.65,-1.95,2.14
198453,0.01,0.01,1.00,1.59,-1.83,2.14
198469,0.01,0.01,1.00,1.59,-1.89,2.14
198485,0.01,0.01,1.00,1.53,-1.89,2.14
198501,0.01,0.01,1.00,1.59,-1.95,2.08
198517,0.01,0.01,1.00,1.65,-1.95,2.14
198533,0.01,0.01,1.00,1.59,-1.89,2.20
198549,0.01,0.01,1.00,1.59,-1.83,2.14
198565,0.01,0.01,1.00,1.53,-1.95,2.08
198581,0.01,0.01,1.00,1.59,-1.89,2.14
198597,0.01,0.01,1.00,1.65,-1.89,2.20
198613,0.01,0.01,1.00,1.65,-1.89,2.08
198629,0.01,0.01,1.00,1.65,-1.83,2.14
198645,0.01,0.01,1.00,1.65,-1.89,2.14
198661,0.01,0.01,1.00,1.59,-1.83,2.14
198677,0.01,0.01,1.01,1.65,-1.89,2.08
198693,0.01,0.01,1.00,1.65,-1.89,2.14
198709,0.00,0.01,1.00,1.59,-1.89,2.14
198725,0.01,0.01,1.00,1.65,-1.83,2.14
198741,0.01,0.01,1.00,1.65,-1.83,2.14
198757,0.01,0.01,1.00,1.59,-1.89,2.20
198773,0.01,0.01,1.00,1.59,-1.89,2.14
198789,0.01,0.01,1.00,1.59,-1.95,2.20
198805,0.01,0.01,1.00,1.59,-1.83,2.14
198821,0.01,0.01,1.00,1.59,-1.83,2.08
198837,0.01,0.01,1.00,1.59,-1.95,2.14
198853,0.01,0.01,1.00,1.59,-1.89,2.20
198869,0.01,0.01,1.00,1.59,-1.83,2.14
198885,0.01,0.01,1.00,1.65,-1.89,2.14
198901,0.01,0.01,1.00,1.59,-1.89,2.08
198917,0.01,0.01,1.00,1.59,-1.95,2.08
198933,0.01,0.01,1.00,1.53,-1.89,2.14
198949,0.01,0.01,1.00,1.59,-1.89,2.08
198965,0.01,0.01,1.00,1.59,-1.77,2.08
198981,0.00,0.01,1.00,1.65,-1.83,2.08
198997,0.01,0.01,1.00,1.65,-1.95,2.14
199013,0.01,0.01,1.00,1.65,-1.89,2.14
199029,0.01,0.01,1.00,1.65,-1.89,2.14
199045,0.01,0.01,1.00,1.65,-1.89,2.14
199061,0.01,0.01,1.00,1.59,-1.89,2.08
199077,0.01,0.01,1.00,1.59,-1.89,2.14
199093,0.01,0.01,1.00,1.59,-1.83,2.08
199109,0.01,0.01,1.00,1.71,-1.95,2.08
199125,0.01,0.01,1.00,1.65,-1.95,2.14
199141,0.01,0.01,1.00,1.65,-1.83,2.14
199157,0.01,0.01,1.00,1.65,-1.95,2.14
199173,0.01,0.01,1.00,1.59,-1.95,2.08
199189,0.01,0.01,1.00,1.59,-1.89,2.08
199205,0.01,0.01,1.00,1.59,-1.89,2.14
199221,0.01,0.01,1.00,1.59,-1.95,2.14
199237,0.01,0.01,1.00,1.65,-1.89,2.14
199253,0.01,0.01,1.00,1.65,-1.83,2.14
199269,0.01,0.01,1.00,1.59,-1.89,2.14
199285,0.01,0.01,1.00,1.65,-1.83,2.14
199301,0.00,0.01,1.00,1.59,-1.83,2.14
199317,0.01,0.01,1.00,1.59,-1.95,2.14
199333,0.01,0.01,1.00,1.59,-1.83,2.08
199349,0.01,0.01,1.00,1.59,-1.89,2.08
199365,0.01,0.01,1.00,1.65,-1.89,2.08
199381,0.01,0.01,1.00,1.65,-1.89,2.14
199397,0.01,0.01,1.00,1.59,-1.83,2.08
199413,0.01,0.01,1.00,1.59,-1.83,2.08
199429,0.01,0.01,1.00,1.71,-1.89,2.14
199445,0.01,0.01,1.00,1.71,-1.95,2.14
199461,0.01,0.01,1.00,1.65,-1.89,2.14
199477,0.01,0.01,1.00,1.71,-1.89,2.14
199493,0.01,0.01,1.00,1.59,-1.95,2.08
199509,0.01,0.01,1.00,1.59,-1.89,2.01
199525,0.01,0.01,1.00,1.65,-1.89,2.08
199541,0.01,0.01,1.00,1.65,-1.89,2.08
199557,0.01,0.01,1.00,1.59,-1.89,2.14
199573,0.01,0.01,1.00,1.65,-1.89,2.08
199589,0.01,0.01,1.00,1.53,-1.89,2.08
199605,0.01,0.01,1.00,1.59,-1.77,2.08
199621,0.01,0.01,1.00,1.65,-1.89,2.14
199637,0.01,0.01,1.00,1.59,-1.89,2.20
199653,0.01,0.01,1.00,1.65,-1.89,2.14
199669,0.01,0.01,1.00,1.59,-1.95,2.14
199685,0.01,0.01,1.00,1.59,-1.83,2.14
199701,0.01,0.01,1.00,1.65,-1.89,2.14
199717,0.01,0.01,1.00,1.59,-1.83,2.08
199733,0.01,0.01,1.00,1.59,-1.83,2.08
199749,0.01,0.01,1.00,1.65,-1.89,2.14
199765,0.01,0.01,1.00,1.65,-1.89,2.14
199781,0.01,0.01,1.00,1.53,-1.89,2.20
199797,0.01,0.01,1.00,1.59,-1.89,2.14
199813,0.01,0.01,1.00,1.59,-1.89,2.20
199829,0.01,0.01,1.00,1.59,-1.89,2.08
199845,0.01,0.01,1.01,1.65,-1.95,2.08
199861,0.01,0.01,1.00,1.65,-1.83,2.14
199877,0.01,0.01,1.00,1.65,-1.83,2.14
199893,0.01,0.01,1.00,1.59,-1.95,2.14
199909,0.01,0.01,1.00,1.59,-1.95,2.08
199925,0.01,0.01,1.00,1.71,-1.89,2.20
199941,0.01,0.01,1.00,1.65,-1.83,2.14
199957,0.01,0.01,1.00,1.65,-1.89,2.08
199973,0.01,0.01,1.00,1.71,-1.89,2.08
199989,0.01,0.01,1.00,1.59,-1.89,2.08
200005,0.01,0.01,1.00,1.59,-1.95,2.14