time,accel_x,accel_y,accel_z,gyro_x,gyro_y,gyro_z
460022,0.02,-0.13,1.00,9.77,-1.71,21.61
460037,-0.04,-0.13,1.01,2.38,-1.46,15.08
460053,-0.07,-0.05,1.01,1.59,-1.89,8.24
460069,-0.06,-0.03,1.00,1.95,-1.53,7.45
460085,-0.01,-0.01,0.99,10.62,-1.71,13.00
460101,-0.00,-0.08,1.00,-0.55,-1.40,27.95
460117,0.01,-0.13,1.01,-0.79,-1.65,36.93
460133,0.01,-0.16,1.02,-3.23,-1.46,48.46
460149,-0.06,-0.15,0.99,-8.06,-0.85,44.56
460165,-0.04,-0.16,0.98,-3.78,-0.98,39.98
460181,-0.02,-0.18,0.99,9.09,-0.73,27.34
460197,-0.01,-0.19,1.00,13.43,-1.10,19.78
460213,0.03,-0.22,1.02,8.85,-1.04,20.75
460229,0.02,-0.31,1.01,-1.10,-1.65,24.11
460245,0.03,-0.34,1.01,-5.13,-2.26,19.71
460261,0.01,-0.38,1.01,-5.00,-2.01,15.01
460277,0.05,-0.21,0.97,-3.36,-1.71,5.07
460293,-0.04,-0.17,1.00,11.05,-1.77,12.45
460309,-0.02,-0.23,1.01,7.63,-1.16,17.27
460325,0.01,-0.29,1.02,-0.18,-1.22,20.94
460341,0.02,-0.31,1.02,-5.00,-1.34,11.72
460357,0.02,-0.32,1.01,-12.63,-0.73,3.97
460373,0.01,-0.28,1.00,-12.45,-1.16,-11.35
460389,0.01,-0.27,1.00,-11.05,-1.46,-17.15
460405,0.01,-0.23,1.00,-8.73,-1.95,-24.29
460421,0.02,-0.22,1.00,-6.90,-2.32,-27.77
460437,0.01,-0.21,1.00,-5.92,-2.62,-29.30
460453,-0.00,-0.18,1.00,-2.62,-1.34,-32.53
460469,-0.01,-0.09,0.98,0.37,-0.98,-34.48
460485,-0.03,-0.14,0.93,5.86,-0.85,-32.17
460501,-0.03,-0.09,1.00,17.64,-2.50,-27.83
460517,-0.02,-0.05,1.03,10.13,-2.26,-25.82
460533,0.01,-0.06,1.03,1.71,-1.65,-24.35
460549,-0.02,-0.14,1.00,-4.52,-1.71,-16.91
460565,-0.02,-0.16,0.95,-18.07,-0.49,-18.25
460581,-0.07,-0.11,1.02,-16.42,0.37,-20.63
460597,-0.06,0.01,1.01,-10.38,-1.10,-28.56
460613,0.01,0.05,0.99,-6.96,-1.22,-38.45
460629,0.01,0.06,0.99,-2.69,0.49,-40.10
460645,-0.03,0.12,1.02,5.74,0.49,-40.83
460661,-0.03,0.20,1.02,9.22,-3.42,-39.73
460677,-0.01,0.23,1.01,10.99,-2.62,-37.84
460693,-0.02,0.25,1.01,5.62,-1.65,-29.24
460709,-0.03,0.29,1.00,-4.21,-1.83,-22.95
460725,-0.00,0.31,1.00,-4.15,-1.53,-20.75
460741,0.03,0.33,1.00,0.85,-1.59,-15.32
460757,0.00,0.36,0.99,7.45,-1.83,-9.34
460773,-0.01,0.37,0.99,10.99,-2.75,-6.23
460789,-0.04,0.33,1.02,17.27,-3.42,0.92
460805,-0.03,0.11,1.02,7.45,-2.38,3.11
460821,-0.02,0.11,1.01,2.20,-2.08,-0.61
460837,-0.06,0.15,0.98,-0.98,-1.53,-11.72
460853,-0.06,0.27,0.99,12.45,-1.77,-18.80
460869,-0.05,0.32,1.00,18.07,-1.95,-18.74
460885,-0.04,0.35,1.00,18.25,-2.26,-9.34
460901,-0.03,0.27,1.01,12.57,-2.08,10.01
460917,-0.03,0.24,1.01,8.30,-1.83,20.51
460933,-0.02,0.18,1.01,-2.69,-1.77,34.79
460949,-0.05,0.14,0.99,-3.91,-1.40,35.40
460965,-0.06,0.14,0.99,-0.73,-1.16,33.45
460981,-0.07,0.17,0.99,4.76,-0.49,31.07
460997,-0.03,0.14,1.01,10.50,-0.92,34.12
461013,-0.02,0.12,1.02,10.13,-0.98,37.23
461029,-0.01,0.04,1.02,2.08,-2.32,42.36
461045,-0.01,-0.02,0.99,-6.29,-2.50,41.69
461061,-0.01,-0.03,1.00,-2.87,-2.08,39.06
461077,-0.02,0.00,1.00,5.07,-1.71,29.79
461093,0.02,0.03,1.01,7.57,-2.26,23.56
461109,0.02,0.01,1.00,3.66,-2.08,23.38
461125,0.03,-0.03,1.01,0.31,-1.16,28.32
461141,0.02,-0.06,1.01,1.04,-1.95,31.01
461157,0.03,-0.08,1.00,0.43,-1.83,29.60
461173,0.01,-0.08,0.97,4.33,-1.28,22.95
461189,-0.02,-0.07,1.02,-1.22,-0.85,17.70
461205,-0.04,-0.07,0.99,-2.44,-1.59,18.19
461221,-0.02,-0.05,1.01,2.26,-1.77,22.83
461237,-0.03,-0.11,1.00,0.00,-1.10,28.81
461253,0.02,-0.14,1.01,1.59,-0.79,29.24
461269,0.03,-0.16,1.01,4.03,-0.61,25.76
461285,0.03,-0.17,1.01,0.79,-1.22,16.97
461301,0.02,-0.22,1.00,0.18,-1.83,14.04
461317,0.03,-0.20,1.02,3.85,-1.83,13.18
461333,0.00,-0.20,1.01,0.61,-1.46,11.90
461349,-0.02,-0.23,1.01,2.14,-1.53,9.52
461365,-0.01,-0.29,1.01,4.94,-1.34,3.78
461381,-0.00,-0.32,1.01,2.93,-1.46,0.43
461397,-0.01,-0.35,1.01,0.49,-1.71,-1.22
461413,0.03,-0.05,1.01,3.72,-1.83,3.48
461429,0.03,-0.13,1.00,1.95,-1.28,9.58
461445,0.02,-0.24,1.01,2.99,-0.92,21.36
461461,0.00,-0.35,1.01,-1.89,-1.59,23.19
461477,-0.01,-0.38,1.01,-3.17,-1.89,18.68
461493,-0.03,-0.36,1.01,-8.48,-2.08,0.92
461509,-0.02,-0.28,1.00,-11.47,-2.32,-19.84
461525,-0.01,-0.25,0.99,-8.85,-2.08,-27.59
461541,0.00,-0.17,0.99,-3.30,-1.59,-35.22
461557,0.03,-0.17,1.00,-2.01,-2.75,-32.78
461573,0.03,-0.17,1.00,-1.59,-2.69,-29.85
461589,0.00,-0.18,0.99,0.55,-3.11,-24.23
461605,-0.04,-0.10,1.02,3.91,-1.77,-24.29
461621,-0.05,-0.07,1.02,-0.43,-1.59,-25.27
461637,-0.02,-0.08,1.02,-0.18,-1.83,-22.34
461653,0.01,-0.06,1.00,9.09,-2.01,-18.49
461669,0.02,-0.07,1.01,7.51,-1.95,-20.14
461685,-0.02,-0.07,1.02,-1.95,-0.85,-26.79
461701,-0.03,-0.04,1.07,-13.06,-1.83,-32.04
461717,-0.02,-0.06,0.94,-20.75,-0.67,-33.45
461733,-0.05,0.05,0.97,-8.06,-0.49,-32.65
461749,-0.01,0.11,1.00,-4.21,-2.75,-31.86
461765,0.00,0.12,1.00,-2.08,-1.65,-28.69
461781,-0.00,0.07,1.00,0.24,0.24,-18.80
461797,-0.02,0.03,1.02,-0.24,-0.61,-13.12
461813,-0.03,0.05,1.01,-0.92,-2.08,-13.06
461829,-0.06,0.14,1.01,-5.74,-1.83,-19.10
461845,-0.05,0.19,0.99,-0.18,-1.16,-24.23
461861,-0.02,0.22,0.99,4.39,-2.14,-23.68
461877,-0.01,0.25,1.01,4.27,-3.48,-19.84
461893,0.03,0.29,1.02,4.15,-2.50,-12.76
461909,0.02,0.28,1.01,2.87,-2.26,-8.67
461925,-0.03,0.33,0.99,2.87,-2.75,-2.20
461941,-0.03,0.38,0.99,10.01,-2.62,-1.65
461957,-0.08,0.29,1.01,15.44,-2.38,-1.16
461973,-0.01,0.16,1.01,11.41,-1.77,-7.39
461989,-0.02,0.21,1.00,11.17,-2.20,-18.55
462005,-0.02,0.26,1.01,12.63,-2.20,-18.13
462021,-0.01,0.31,1.00,8.61,-1.89,-8.85
462037,-0.02,0.32,1.00,6.53,-1.46,3.48
462053,-0.04,0.31,1.00,6.96,-1.71,9.03
462069,-0.02,0.25,1.01,8.06,-1.89,21.42
462085,-0.03,0.19,1.00,4.15,-0.98,32.04
462101,-0.04,0.16,1.00,2.01,-0.55,35.10
462117,-0.03,0.13,1.00,3.05,-1.04,37.54
462133,-0.02,0.09,1.01,4.33,-1.59,36.99
462149,-0.02,0.07,1.02,4.94,-1.95,36.62
462165,-0.02,0.05,1.00,0.49,-2.62,35.34
462181,-0.03,0.02,0.99,-3.60,-2.75,32.90
462197,0.00,-0.01,1.00,-0.73,-2.08,31.07
462213,0.00,-0.01,1.00,5.92,-1.89,23.01
462229,0.02,0.02,1.01,10.50,-2.44,12.70
462245,0.04,0.02,1.01,6.35,-2.50,10.68
462261,0.04,-0.00,1.01,-0.37,-1.65,15.56
462277,0.03,-0.02,1.00,-2.44,-1.83,24.05
462293,0.01,-0.03,1.00,-0.49,-1.83,26.86
462309,-0.06,-0.03,0.99,1.77,-1.22,25.70
462325,-0.07,-0.02,1.00,8.30,-1.40,22.71
462341,-0.05,-0.07,0.99,-1.22,-1.28,24.54
462357,-0.02,-0.09,1.01,4.03,-1.53,32.78
462373,-0.00,-0.09,1.01,2.08,-0.98,41.75
462389,0.02,-0.15,1.01,-0.49,-0.98,42.79
462405,0.01,-0.17,1.00,-0.85,-0.98,38.15
462421,-0.01,-0.20,1.01,0.61,-0.98,29.97
462437,-0.03,-0.24,1.00,2.32,-1.46,24.41
462453,-0.00,-0.30,1.01,4.46,-1.59,15.87
462469,0.01,-0.33,1.01,3.23,-1.28,13.31
462485,0.01,-0.37,1.01,1.89,-1.22,8.12
462501,0.01,-0.41,1.01,1.77,-1.46,-0.43
462517,0.01,-0.40,1.01,1.83,-1.46,-5.92
462533,-0.00,-0.11,1.02,7.02,-1.77,1.16
462549,-0.01,-0.22,1.00,0.85,-1.34,12.45
462565,-0.01,-0.25,1.01,0.24,-1.77,14.47
462581,-0.01,-0.29,1.01,-6.16,-2.26,10.13
462597,0.02,-0.31,1.01,-8.00,-1.59,-1.22
462613,0.02,-0.32,1.01,-8.18,-1.22,-7.87
462629,0.03,-0.28,1.01,-8.67,-0.73,-20.81
462645,0.03,-0.23,1.00,-11.78,0.06,-31.43
462661,0.02,-0.20,1.01,-11.35,0.79,-34.06
462677,-0.01,-0.20,1.00,-8.67,2.75,-35.10
462693,-0.01,-0.17,0.99,-0.55,5.13,-32.71
462709,-0.01,-0.18,0.99,3.42,5.55,-30.52
462725,0.01,-0.17,0.99,7.51,4.39,-25.51
462741,-0.05,-0.10,0.95,10.86,1.77,-21.79
462757,-0.08,-0.05,0.99,11.23,-0.18,-21.85
462773,-0.04,-0.03,1.00,7.26,-5.13,-21.73
462789,-0.03,-0.03,1.01,-0.79,-6.41,-19.35
462805,-0.05,-0.05,1.00,-3.05,-7.93,-17.40
462821,-0.00,-0.10,0.93,-18.68,-11.47,-14.89
462837,-0.03,-0.01,1.00,-6.10,-11.54,-13.31
462853,-0.04,0.13,1.06,5.86,-2.93,-18.25
462869,-0.04,0.16,1.00,-0.79,-1.28,-23.62
462885,-0.02,0.18,0.98,5.31,-1.16,-15.26
462901,-0.03,0.18,0.98,10.31,-1.65,-11.35
462917,-0.01,0.19,1.03,14.95,-1.89,-3.97
462933,-0.01,0.18,1.02,8.67,-1.95,2.81
462949,0.00,0.17,1.01,3.85,-1.46,3.72
462965,0.00,0.19,1.01,-3.36,-1.83,-0.85
462981,-0.01,0.21,1.00,-6.59,-2.32,-7.20
462997,-0.01,0.23,0.99,-5.68,-2.14,-8.97
463013,-0.00,0.29,0.99,2.62,-1.89,-11.47
463029,-0.00,0.37,1.00,9.16,-2.26,-10.31
463045,0.01,0.39,1.00,11.60,-2.26,-8.91
463061,-0.02,0.09,1.01,8.36,-2.20,-4.27
463077,-0.01,0.17,1.00,1.95,-2.08,-19.78
463093,-0.01,0.25,1.00,4.64,-2.20,-22.89
463109,-0.01,0.36,1.01,7.69,-2.20,-18.92
463125,-0.00,0.35,1.00,4.46,-1.46,-4.03
463141,0.00,0.32,1.00,4.46,-1.22,4.82
463157,-0.00,0.26,1.00,7.93,-1.34,19.04
463173,0.01,0.23,1.00,6.96,-2.08,27.34
463189,0.01,0.20,1.01,4.76,-2.26,31.37
463205,-0.01,0.15,1.01,-0.61,-1.83,38.88
463221,-0.04,0.11,1.00,-0.85,-2.38,39.67
463237,-0.04,0.09,0.99,1.83,-2.44,37.11
463253,-0.01,0.04,0.99,6.65,-1.83,29.91
463269,0.02,-0.00,1.00,10.68,-1.22,24.66
463285,-0.01,0.04,1.01,10.07,-1.59,21.73
463301,-0.02,0.03,1.00,-1.65,-2.62,17.58
463317,-0.01,0.03,1.00,-4.27,-2.32,22.34
463333,-0.02,0.03,1.01,-3.48,-1.46,25.51
463349,-0.03,0.02,1.02,5.92,-1.22,26.00
463365,-0.02,-0.04,1.00,5.49,-0.85,24.29
463381,-0.03,-0.07,0.98,7.02,-0.73,24.05
463397,-0.02,-0.02,1.01,0.18,-1.53,22.64
463413,-0.02,-0.05,1.00,-3.11,-2.44,27.83
463429,0.00,-0.07,1.01,-3.72,-2.01,33.45
463445,-0.03,-0.11,0.99,0.24,-1.22,45.35
463461,-0.05,-0.14,1.02,-2.44,-0.98,46.75
463477,-0.02,-0.23,1.00,-3.23,-0.79,45.72
463493,-0.01,-0.25,1.01,0.06,-1.28,38.64
463509,-0.00,-0.27,1.01,-0.98,-1.40,26.98
463525,-0.01,-0.30,1.01,-4.03,-1.22,20.69
463541,-0.03,-0.33,1.00,-2.01,-1.10,9.64
463557,-0.02,-0.33,1.01,0.73,-1.46,5.13
463573,-0.01,-0.33,1.01,0.98,-1.34,-3.36
463589,0.05,-0.31,1.01,0.55,-1.46,-6.53
463605,0.08,-0.14,0.98,2.26,-1.40,-4.03
463621,-0.03,-0.17,1.00,8.48,-1.65,8.79
463637,0.00,-0.24,1.00,10.13,-1.83,15.81
463653,0.00,-0.27,1.01,9.46,-1.89,16.72
463669,-0.01,-0.32,1.02,3.72,-1.95,12.39
463685,-0.02,-0.30,1.01,-4.21,-2.26,0.73
463701,-0.01,-0.27,1.01,-6.41,-2.38,-6.10
463717,0.00,-0.23,1.00,-3.60,-1.89,-18.13
463733,0.00,-0.21,1.01,0.55,-1.95,-24.05
463749,0.00,-0.22,1.00,-0.37,-2.08,-24.78
463765,-0.01,-0.20,1.01,-2.32,-2.62,-25.27
463781,-0.01,-0.14,1.02,-4.03,-2.69,-27.77
463797,0.00,-0.11,1.00,-3.85,-1.77,-29.05
463813,-0.01,-0.07,0.99,1.16,-1.28,-28.56
463829,-0.00,-0.04,1.00,6.59,-2.32,-24.23
463845,-0.01,-0.05,1.03,5.37,-1.83,-20.39
463861,-0.02,-0.06,0.98,13.79,-3.11,-11.23
463877,-0.01,-0.03,1.03,7.26,-1.89,-12.39
463893,-0.03,-0.04,1.01,0.67,-1.65,-14.59
463909,-0.04,0.00,1.05,-7.02,-1.95,-20.63
463925,-0.05,0.04,0.99,-14.71,-0.98,-26.25
463941,-0.01,0.09,0.98,-5.49,-1.40,-24.84
463957,0.03,0.08,1.00,0.98,-1.95,-20.20
463973,-0.02,0.03,0.99,1.65,-1.28,-15.14
463989,-0.03,0.03,1.00,0.24,-1.34,-17.15
464005,-0.03,0.06,1.01,-2.50,-0.85,-26.49
464021,-0.01,0.09,1.00,-2.99,-1.10,-33.94
464037,-0.00,0.12,1.01,-1.10,-0.55,-33.94
464053,-0.01,0.12,1.00,1.65,-2.20,-28.69
464069,-0.00,0.16,1.00,0.55,-3.54,-25.02
464085,-0.02,0.17,1.00,-0.06,-3.17,-25.88
464101,-0.02,0.26,1.00,2.26,-2.87,-28.50
464117,-0.01,0.31,1.00,4.15,-2.38,-26.43
464133,-0.01,0.33,1.00,4.52,-2.26,-20.69
464149,0.01,0.38,1.00,3.48,-2.08,-7.14
464165,0.02,0.36,1.00,5.00,-1.71,0.67
464181,-0.01,0.13,1.04,6.53,-1.71,3.60
464197,-0.01,0.15,0.98,1.22,-1.59,-10.74
464213,0.01,0.29,1.00,14.40,-2.32,-25.82
464229,0.02,0.35,1.00,16.72,-2.44,-27.04
464245,0.03,0.39,1.01,12.08,-2.14,-15.26
464261,-0.00,0.34,1.01,3.60,-1.40,7.14
464277,-0.03,0.29,1.00,0.98,-1.16,18.62
464293,-0.05,0.23,1.00,0.24,-1.28,34.55
464309,-0.04,0.18,1.00,1.77,-0.92,39.43
464325,-0.04,0.16,0.99,1.65,-0.67,39.49
464341,-0.03,0.11,1.00,8.00,-1.46,39.00
464357,0.00,0.07,1.01,5.43,-1.71,37.78
464373,-0.00,0.04,1.01,1.59,-1.65,37.17
464389,-0.01,0.05,1.00,-0.92,-2.81,33.20
464405,-0.04,0.07,0.99,-3.91,-2.32,24.72
464421,-0.03,0.06,0.99,-2.08,-1.89,21.18
464437,-0.00,0.07,1.01,4.94,-1.77,19.35
464453,0.00,0.07,1.01,3.17,-2.26,21.06
464469,-0.00,0.04,1.00,1.83,-2.26,23.19
464485,-0.00,-0.02,1.01,-0.49,-1.10,28.26
464501,-0.01,-0.03,1.01,1.04,-1.71,27.10
464517,-0.05,-0.02,1.00,0.85,-1.40,24.96
464533,-0.06,-0.09,1.02,3.78,-1.28,24.35
464549,-0.01,0.01,1.02,-2.99,-0.98,30.64
464565,-0.05,-0.09,0.99,-2.32,-1.34,34.42
464581,0.01,-0.13,1.01,4.76,-1.34,42.36
464597,0.02,-0.18,1.01,4.33,-0.73,45.53
464613,0.01,-0.27,1.00,0.92,-0.55,40.89
464629,-0.00,-0.32,1.00,-0.55,-0.98,25.76
464645,-0.00,-0.30,1.01,2.44,-1.71,17.76
464661,-0.05,-0.29,1.01,-1.28,-2.26,-0.12
464677,0.00,-0.31,1.01,-1.40,-1.83,-6.29
464693,0.01,-0.33,1.01,-0.79,-1.53,-5.55
464709,0.01,-0.40,1.01,3.66,-1.53,-4.82
464725,0.08,-0.22,0.99,3.78,-1.65,-3.54
464741,-0.05,-0.17,1.02,6.53,-1.53,2.93
464757,-0.02,-0.22,1.00,1.10,-1.65,12.63
464773,0.00,-0.23,1.01,-0.73,-1.77,11.78
464789,0.01,-0.23,1.01,-2.93,-2.01,8.91
464805,0.01,-0.23,1.01,-5.00,-1.89,0.73
464821,0.02,-0.23,1.00,-5.55,-2.08,-7.20
464837,0.02,-0.23,1.01,-4.88,-2.01,-9.83
464853,0.03,-0.24,1.00,-4.03,-1.53,-12.88
464869,0.02,-0.23,1.00,-3.42,-2.08,-16.05
464885,0.02,-0.22,1.01,-3.60,-2.26,-18.19
464901,0.01,-0.19,1.00,-4.52,-2.62,-21.97
464917,-0.02,-0.13,0.99,-0.67,-1.22,-25.21
464933,-0.02,-0.12,0.99,3.11,-1.22,-25.02
464949,0.03,-0.10,1.01,10.13,-2.14,-18.68
464965,-0.01,-0.13,1.03,14.28,-2.75,-10.19
464981,-0.03,-0.12,1.01,12.51,-2.56,-9.77
464997,-0.04,-0.06,1.02,0.61,-1.34,-15.01
465013,-0.08,-0.05,1.00,-5.98,-2.08,-17.15
465029,-0.04,0.00,1.05,-8.85,-2.50,-17.58
465045,-0.04,-0.01,1.00,-7.45,-0.55,-16.05
465061,-0.01,0.06,1.03,2.44,-0.79,-16.78
465077,-0.01,0.07,1.01,-0.85,-1.83,-18.25
465093,-0.02,0.04,0.97,-8.24,-0.49,-21.06
465109,-0.03,0.09,0.97,-2.20,-0.85,-25.63
465125,-0.03,0.16,1.02,3.42,-1.22,-29.11
465141,-0.01,0.24,1.03,12.15,-0.55,-36.50
465157,-0.02,0.25,1.01,7.93,-2.93,-34.24
465173,-0.00,0.27,1.00,6.71,-3.66,-30.46
465189,0.01,0.31,1.01,3.30,-2.99,-23.19
465205,-0.00,0.36,1.00,1.16,-2.56,-16.05
465221,-0.00,0.39,1.00,2.20,-2.50,-12.45
465237,0.01,0.39,1.00,5.25,-2.14,-1.77
465253,-0.01,0.34,1.01,3.72,-2.20,10.74
465269,-0.02,0.09,1.02,-2.99,-2.14,11.11
465285,-0.00,0.09,0.98,-5.13,-1.77,-2.20
465301,-0.04,0.22,0.99,0.49,-2.01,-12.08
465317,-0.04,0.26,0.99,6.53,-1.95,-15.87
465333,-0.01,0.33,1.00,18.62,-1.89,-14.83
465349,-0.00,0.35,1.01,16.36,-1.16,-3.97
465365,-0.01,0.33,1.00,12.27,-0.55,3.97
465381,-0.00,0.28,1.00,5.07,-0.67,20.57
465397,-0.01,0.19,1.00,-6.71,-1.04,31.56
465413,-0.02,0.17,1.00,-8.30,-1.22,32.71
465429,-0.04,0.19,0.99,1.59,-1.34,28.50
465445,-0.01,0.16,1.02,11.54,-3.05,26.37
465461,0.01,0.15,1.02,11.96,-2.56,28.99
465477,-0.01,0.08,1.00,-2.08,-3.23,34.30
465493,0.01,0.04,1.00,-6.23,-2.01,36.01
465509,-0.01,0.00,0.99,-6.35,-1.40,34.18
465525,-0.02,0.02,1.00,3.54,-2.38,27.28
465541,-0.02,0.04,1.00,3.17,-2.08,23.19
465557,-0.01,0.02,1.00,3.48,-1.59,24.11
465573,0.01,-0.03,1.01,1.10,-0.98,28.20
465589,0.02,-0.05,1.01,2.08,-1.71,29.85
465605,0.00,-0.09,1.00,1.40,-1.34,28.63
465621,-0.02,-0.06,1.02,5.49,-0.98,22.34
465637,-0.04,-0.08,1.02,0.00,-0.67,20.94
465653,-0.01,-0.09,1.01,2.50,-2.08,24.29
465669,0.02,-0.11,1.01,4.64,-1.40,31.80
465685,0.03,-0.15,1.00,4.46,-1.10,33.57
465701,-0.02,-0.24,1.01,1.40,-0.79,29.91
465717,0.00,-0.28,1.01,3.60,-1.40,22.52
465733,0.00,-0.31,1.01,2.62,-1.28,15.50
465749,-0.01,-0.35,0.99,0.55,-1.59,-1.10
465765,-0.00,-0.37,1.01,0.24,-1.95,-12.82
465781,-0.02,-0.36,1.01,-2.44,-1.83,-16.36
465797,-0.00,-0.29,1.00,-2.38,-2.08,-18.31
465813,0.01,-0.04,1.01,0.61,-2.01,-2.20
465829,0.01,-0.09,1.00,0.92,-1.71,5.74
465845,-0.02,-0.21,1.00,5.43,-1.28,18.74
465861,0.01,-0.28,1.01,4.03,-1.53,25.09
465877,0.00,-0.30,1.01,-0.06,-1.59,24.84
465893,0.03,-0.31,1.01,-5.13,-1.40,17.40
465909,0.02,-0.26,1.01,-7.93,-2.08,0.55
465925,0.01,-0.23,1.01,-9.34,-2.08,-8.24
465941,0.01,-0.20,0.99,-5.55,-1.95,-21.79
465957,0.01,-0.18,1.00,4.88,-2.87,-26.49
465973,0.03,-0.16,1.01,7.02,-3.36,-25.88
465989,0.04,-0.16,1.01,6.84,-2.62,-23.32
466005,0.02,-0.15,1.01,4.76,-1.40,-22.83
466021,0.00,-0.12,1.01,1.95,-1.40,-23.13
466037,-0.04,-0.08,1.03,2.69,-2.26,-21.30
466053,-0.03,-0.02,1.00,13.92,-3.05,-16.36
466069,-0.02,-0.00,1.02,11.84,-2.81,-15.50
466085,-0.01,-0.06,1.01,2.81,-1.53,-12.21
466101,-0.04,-0.07,1.03,1.04,-2.38,-9.09
466117,-0.02,-0.04,1.04,-10.50,-0.92,-12.94
466133,-0.06,-0.09,1.01,-10.38,0.43,-16.85
466149,-0.05,0.00,1.00,-5.49,-1.77,-21.97
466165,-0.04,0.05,1.01,-5.92,-2.62,-23.99
466181,-0.04,0.07,0.99,0.18,-0.06,-26.25
466197,-0.02,0.09,1.01,1.83,-0.43,-26.49
466213,-0.01,0.11,1.02,-0.24,-1.53,-25.27
466229,-0.01,0.13,1.01,-5.49,-1.71,-23.32
466245,-0.03,0.12,1.00,-5.92,-1.65,-20.87
466261,-0.03,0.13,0.99,-4.58,-2.50,-19.71
466277,-0.03,0.22,1.00,1.71,-2.69,-22.64
466293,-0.01,0.25,1.00,5.07,-2.81,-24.72
466309,0.01,0.27,1.01,7.20,-2.93,-22.09
466325,0.01,0.28,1.00,2.62,-2.14,-13.31
466341,-0.00,0.29,1.00,0.12,-2.38,-3.48
466357,0.01,0.32,1.00,1.71,-2.69,-0.18
466373,0.00,0.38,1.00,6.84,-2.32,2.50
466389,-0.02,0.09,1.01,6.23,-2.32,0.24
466405,-0.03,0.12,1.00,0.43,-1.77,-9.34
466421,-0.02,0.21,1.00,4.33,-2.38,-23.32
466437,-0.01,0.32,1.01,3.91,-1.95,-23.56
466453,-0.00,0.34,1.01,2.81,-1.71,-19.10
466469,0.01,0.33,1.00,1.71,-1.40,-4.27
466485,-0.02,0.28,1.00,5.13,-1.53,8.36
466501,-0.01,0.24,1.00,7.08,-1.59,13.55
466517,-0.02,0.19,1.00,9.09,-1.53,23.93
466533,-0.05,0.12,1.01,4.39,-1.89,34.06
466549,-0.04,0.08,1.01,-1.28,-1.59,38.45
466565,-0.04,0.02,1.00,-6.29,-1.04,41.08
466581,-0.05,0.01,1.00,-1.59,-2.14,32.17
466597,-0.02,0.04,1.01,5.19,-2.08,27.04
466613,-0.00,0.04,1.01,11.11,-2.87,18.80
466629,0.02,0.04,1.00,10.19,-3.11,15.75
466645,0.03,0.03,1.01,6.16,-2.32,15.01
466661,-0.01,0.02,1.00,2.93,-2.26,11.78
466677,-0.03,0.04,1.00,6.90,-2.38,9.70
466693,-0.04,0.07,0.99,2.08,-2.56,10.25
466709,0.01,0.07,1.01,4.58,-1.77,14.83
466725,0.03,0.05,1.00,1.40,-0.92,18.19
466741,0.05,-0.00,1.01,4.09,-1.53,24.60
466757,0.01,-0.07,1.00,0.73,-1.77,29.48
466773,-0.03,-0.07,1.01,0.37,-1.34,30.40
466789,0.01,-0.05,1.02,2.32,-1.16,30.15
466805,0.00,-0.09,0.99,-13.31,-1.95,33.33
466821,0.00,-0.09,1.00,-7.69,-2.01,36.68
466837,-0.01,-0.15,1.00,3.42,-1.10,42.11
466853,-0.03,-0.22,1.01,7.02,-1.04,38.21
466869,-0.01,-0.26,1.00,5.55,-0.92,30.94
466885,0.03,-0.32,1.01,5.68,-1.28,20.87
466901,0.00,-0.34,1.00,2.62,-1.46,9.22
466917,-0.05,-0.33,1.01,0.24,-1.40,2.26
466933,-0.01,-0.33,1.04,-3.66,-1.83,-3.05
466949,-0.00,-0.34,1.00,-13.18,-1.10,-3.78
466965,0.02,-0.32,0.99,-8.85,-1.22,-4.46
466981,0.00,-0.06,1.00,10.74,-1.53,1.40
466997,-0.00,-0.17,1.00,17.76,-1.53,8.97
467013,0.01,-0.18,1.03,17.40,-1.53,13.12
467029,0.02,-0.26,1.00,0.55,-1.77,17.21
467045,-0.01,-0.24,1.01,-3.60,-2.56,12.27
467061,-0.01,-0.22,1.01,-3.23,-2.44,6.59
467077,-0.00,-0.19,1.01,-0.85,-1.95,-4.88
467093,0.01,-0.18,1.01,-2.26,-1.53,-11.17
467109,0.02,-0.18,1.00,-3.36,-1.59,-11.84
467125,0.01,-0.18,1.00,-4.39,-2.01,-9.34
467141,-0.01,-0.14,1.01,0.37,-2.93,-6.16
467157,0.00,-0.15,1.01,1.95,-2.87,-4.88
467173,0.01,-0.16,1.01,3.54,-1.53,-2.87
467189,-0.01,-0.14,1.01,8.48,-1.40,-1.95
467205,-0.02,-0.13,1.02,5.13,-1.89,-3.42
467221,-0.01,-0.06,1.02,-5.80,-2.26,-8.48
467237,-0.07,-0.08,0.98,2.32,-2.50,-11.90
467253,-0.06,-0.03,1.02,5.74,-3.17,-15.14
467269,-0.01,-0.03,1.01,0.73,-1.77,-22.83
467285,-0.01,0.01,1.01,-0.92,-2.75,-23.50
467301,-0.00,-0.04,1.02,-9.52,-1.89,-23.99
467317,-0.03,0.06,0.98,-4.27,-1.40,-20.08
467333,0.02,0.12,1.01,-2.62,-0.85,-17.82
467349,0.04,0.13,1.01,-3.36,-0.92,-13.67
467365,0.01,0.07,0.98,-0.85,-1.59,-3.66
467381,-0.01,0.02,0.99,5.00,-1.34,-5.49
467397,-0.01,0.02,1.00,7.51,-1.40,-9.40
467413,-0.04,0.08,1.02,9.83,-1.59,-20.75
467429,-0.02,0.13,1.00,1.40,-1.77,-28.26
467445,-0.02,0.13,0.99,-2.56,-2.14,-27.59
467461,-0.00,0.16,1.01,-1.89,-2.26,-23.80
467477,0.01,0.20,0.99,2.93,-2.81,-19.78
467493,0.01,0.18,0.98,4.64,-3.23,-18.55
467509,0.00,0.25,1.00,7.45,-2.93,-19.04
467525,0.00,0.33,1.00,6.77,-2.50,-17.15
467541,0.01,0.37,1.00,6.53,-2.44,-13.55
467557,0.02,0.38,1.00,2.75,-1.83,-6.16
467573,-0.01,0.08,1.00,-1.59,-1.71,0.49
467589,-0.03,0.12,0.98,-4.15,-1.59,-6.29
467605,-0.01,0.23,1.01,10.93,-2.50,-20.69
467621,0.01,0.28,1.00,6.84,-2.14,-20.32
467637,0.02,0.32,1.00,3.66,-2.08,-14.22
467653,0.03,0.34,0.99,1.40,-2.01,0.98
467669,0.03,0.33,1.00,6.41,-1.46,17.40
467685,0.01,0.27,1.00,7.02,-1.16,24.78
467701,0.00,0.18,1.00,3.85,-0.92,35.52
467717,0.00,0.13,1.00,0.18,-0.92,39.12
467733,-0.02,0.08,1.00,1.22,-0.73,37.84
467749,-0.02,0.09,1.01,1.04,-1.83,31.43
467765,-0.01,0.08,1.01,0.92,-1.65,28.50
467781,-0.03,0.09,1.01,2.81,-2.20,26.79
467797,-0.02,0.05,1.01,2.62,-2.50,21.97
467813,-0.01,0.03,0.99,1.46,-1.95,19.96
467829,-0.01,-0.02,1.01,3.05,-1.28,18.62
467845,-0.05,-0.05,1.01,1.28,-1.89,20.51
467861,-0.05,-0.05,1.00,0.24,-1.95,21.91
467877,-0.03,-0.04,1.00,3.23,-1.59,22.64
467893,-0.00,-0.04,1.01,1.22,-0.31,20.57
467909,-0.00,-0.03,1.00,2.56,-0.73,19.84
467925,-0.01,-0.03,1.00,0.92,-1.59,17.33
467941,-0.01,-0.03,1.01,1.65,-1.77,14.59
467957,-0.03,-0.05,1.01,2.81,-2.01,13.79
467973,-0.02,-0.07,1.00,-4.46,-1.10,17.58
467989,0.00,-0.04,1.00,1.65,-2.08,24.35
468005,0.00,-0.02,1.01,1.59,-1.89,28.38
468021,-0.00,-0.05,0.99,-2.62,-1.40,34.55
468037,-0.03,-0.10,1.00,3.36,-1.10,36.44
468053,-0.03,-0.11,1.01,5.49,-0.79,37.05
468069,-0.02,-0.16,1.00,2.62,-0.73,35.22
468085,0.02,-0.16,1.01,4.88,-1.22,31.19
468101,0.03,-0.19,1.01,2.14,-1.22,28.38
468117,0.03,-0.21,1.01,0.43,-1.22,23.74
468133,-0.02,-0.21,1.01,2.75,-1.16,15.38
468149,-0.02,-0.22,1.01,3.66,-1.34,9.34
468165,0.00,-0.27,1.01,3.72,-1.28,0.06
468181,0.01,-0.32,1.01,2.38,-1.46,-4.46
468197,-0.01,-0.18,1.00,2.14,-1.53,-5.80
468213,0.01,-0.10,1.01,0.12,-1.83,7.14
468229,-0.02,-0.19,1.01,1.28,-1.46,18.92
468245,-0.02,-0.22,1.01,0.92,-1.28,21.24
468261,0.02,-0.28,1.01,-0.79,-1.46,18.07
468277,-0.00,-0.29,1.01,-2.32,-2.08,5.49
468293,-0.03,-0.27,1.01,-3.66,-2.62,-3.30
468309,-0.05,-0.22,1.01,-6.53,-2.93,-22.71
468325,-0.02,-0.19,1.00,-1.22,-1.89,-33.33
468341,-0.00,-0.17,1.00,2.50,-1.65,-34.12
468357,0.03,-0.16,1.01,0.73,-0.92,-32.17
468373,0.01,-0.19,0.99,-3.05,-0.43,-26.86
468389,-0.02,-0.18,0.98,-1.34,-2.20,-23.68
468405,-0.05,-0.12,1.02,0.18,-7.26,-21.36
468421,-0.03,-0.07,1.02,6.04,-1.53,-23.32
468437,-0.02,-0.04,1.03,3.23,-1.46,-24.17
468453,-0.02,-0.10,0.93,-7.45,-1.65,-23.44
468469,-0.01,-0.08,0.99,6.16,-3.54,-21.85
468485,0.02,-0.06,1.00,8.18,-3.30,-22.52
468501,-0.03,-0.08,1.03,4.94,-3.05,-24.84
468517,-0.03,-0.06,1.00,-12.76,-1.40,-31.31
468533,-0.04,-0.06,0.99,-14.40,-0.67,-32.78
468549,-0.01,0.06,1.01,-3.48,-1.22,-34.00
468565,0.00,0.08,0.98,-4.21,-1.59,-32.29
468581,-0.00,0.08,0.97,-0.85,-1.53,-28.08
468597,-0.01,0.08,1.00,6.16,-0.61,-21.91
468613,0.01,0.12,1.02,4.58,-1.34,-19.17
468629,0.01,0.16,1.02,0.98,-1.59,-19.17
468645,-0.00,0.16,0.98,-3.23,-1.46,-17.15
468661,0.01,0.16,1.00,2.44,-2.81,-12.88
468677,0.01,0.18,1.00,4.82,-2.56,-12.45
468693,-0.03,0.24,1.02,1.83,-3.78,-14.10
468709,-0.03,0.27,1.01,-1.16,-2.93,-19.96
468725,-0.01,0.29,1.00,0.49,-2.32,-20.39
468741,-0.03,0.30,1.00,6.77,-2.38,-13.92
468757,-0.02,0.31,1.01,6.65,-2.08,-4.88
468773,-0.01,0.30,1.01,5.00,-1.89,-0.92
468789,-0.02,0.09,1.04,1.40,-1.95,3.42
468805,-0.04,0.10,1.00,-6.04,-1.77,-13.73
468821,-0.07,0.27,0.98,-2.32,-1.83,-28.32
468837,-0.03,0.33,0.99,13.67,-2.01,-39.79
468853,0.01,0.37,1.01,19.84,-2.26,-32.96
468869,0.04,0.35,1.01,10.31,-1.83,-9.03
468885,0.03,0.29,1.00,5.49,-1.40,16.36
468901,0.03,0.27,1.00,5.80,-0.92,26.18
468917,0.01,0.22,1.00,2.20,-1.40,35.46
468933,0.01,0.20,1.00,2.32,-1.95,37.05
468949,0.01,0.18,1.00,3.23,-1.65,37.48
468965,-0.01,0.16,1.01,0.67,-0.92,40.77
468981,-0.00,0.10,1.01,0.73,-1.71,43.58
468997,0.00,0.08,1.00,1.16,-2.50,43.15
469013,-0.01,0.05,1.00,0.73,-2.20,38.88
469029,-0.02,0.02,0.99,1.53,-1.22,32.47
469045,-0.02,0.02,1.01,4.70,-1.46,27.89
469061,-0.02,0.04,1.00,4.58,-2.01,17.76
469077,-0.05,0.01,1.00,2.26,-1.89,12.88
469093,-0.05,-0.01,1.00,-1.83,-1.04,15.44
469109,-0.04,-0.01,1.01,1.10,-1.77,22.52
469125,-0.05,-0.05,1.01,3.05,-0.98,29.60
469141,-0.05,-0.11,1.02,3.97,-1.22,31.80
469157,-0.04,-0.12,1.00,-3.23,-1.10,32.41
469173,-0.03,-0.13,1.01,1.89,-1.34,27.53
469189,-0.01,-0.12,1.01,2.87,-1.40,26.73
469205,-0.00,-0.12,1.01,3.85,-1.46,28.26
469221,-0.03,-0.17,1.00,0.49,-1.40,24.11
469237,-0.03,-0.19,1.00,1.22,-1.71,22.71
469253,0.00,-0.25,1.01,4.21,-0.92,20.08
469269,-0.00,-0.29,1.01,3.30,-0.61,9.16
469285,0.02,-0.26,1.01,5.00,-0.85,3.66
469301,0.02,-0.23,1.00,1.28,-1.89,-8.73
469317,0.01,-0.21,1.01,0.55,-2.50,-18.86
469333,-0.00,-0.22,1.01,0.67,-2.56,-20.32
469349,-0.00,-0.24,1.01,1.22,-2.08,-15.20
469365,0.04,-0.28,1.01,2.08,-1.65,-4.39
469381,0.09,-0.24,1.01,1.83,-1.59,1.46
469397,-0.02,-0.21,1.01,2.14,-1.34,13.00
469413,0.02,-0.28,1.01,-0.12,-1.59,24.54
469429,0.02,-0.31,1.02,-2.50,-1.46,23.86
469445,-0.00,-0.31,1.02,-4.70,-1.34,9.89
469461,0.02,-0.32,1.00,-6.53,-1.34,-11.60
469477,0.05,-0.31,1.00,-2.93,-1.10,-19.10
469493,0.06,-0.26,1.01,1.28,-1.46,-26.73
469509,0.07,-0.25,1.00,-7.20,-2.14,-26.00
469525,0.05,-0.24,1.01,-10.62,-2.62,-24.41
469541,-0.00,-0.18,1.00,-12.45,-3.17,-23.80
469557,-0.04,-0.08,1.01,-12.15,-2.99,-26.00
469573,-0.03,-0.04,0.98,-11.23,-2.81,-25.33
469589,0.03,-0.06,0.99,-0.06,-2.38,-17.03
469605,0.06,-0.15,0.93,15.08,0.00,-2.50
469621,0.02,-0.13,1.03,23.80,-0.98,3.60
469637,-0.02,-0.13,1.02,17.27,-2.50,3.30
469653,-0.09,-0.10,1.01,-8.36,-2.08,-12.21
469669,-0.11,-0.07,1.02,-11.72,-2.32,-23.07
469685,-0.05,-0.05,0.93,-12.76,-2.20,-40.10
469701,-0.05,0.01,1.00,11.05,-1.04,-40.95
469717,-0.06,0.05,1.03,12.76,-1.59,-40.16
469733,-0.04,0.11,1.00,0.12,-2.08,-38.39
469749,-0.03,0.12,0.99,-3.66,0.37,-31.68
469765,-0.02,0.14,1.00,-4.03,-0.18,-28.20
469781,-0.00,0.20,1.00,-1.22,-2.08,-23.74
469797,-0.00,0.24,1.02,1.95,-1.83,-18.74
469813,-0.02,0.27,1.00,5.92,-1.65,-14.22
469829,-0.04,0.34,1.02,6.41,-2.56,-3.17
469845,-0.02,0.35,1.01,-4.09,-1.65,5.55
469861,-0.00,0.35,1.01,-7.75,-1.59,8.79
469877,-0.02,0.38,0.99,-7.57,-1.65,10.80
469893,-0.03,0.36,0.98,-2.99,-2.08,8.67
469909,-0.06,0.26,1.00,11.41,-2.75,5.07
469925,-0.01,0.08,1.01,3.78,-2.87,-3.54
469941,-0.01,0.07,1.01,0.12,-2.87,-9.16
469957,-0.05,0.15,1.00,-6.10,-2.01,-13.67
469973,-0.09,0.31,0.99,1.40,-1.53,-15.01
469989,-0.07,0.35,0.99,9.46,-1.46,-15.87
470005,-0.04,0.38,1.01,19.23,-1.28,-9.34