time,accel_x,accel_y,accel_z,gyro_x,gyro_y,gyro_z
640022,-0.05,-0.09,1.01,2.56,-1.95,1.83
640037,-0.03,-0.07,1.00,5.43,-1.46,3.36
640053,-0.03,-0.12,1.00,2.26,-1.59,5.86
640069,-0.01,-0.15,1.01,0.55,-1.71,11.05
640085,0.01,-0.15,1.00,2.08,-1.59,15.08
640101,0.00,-0.18,1.00,0.92,-1.53,17.40
640117,0.01,-0.16,1.01,3.85,-1.59,16.78
640133,0.00,-0.20,1.01,0.92,-1.53,15.50
640149,-0.00,-0.22,1.01,0.37,-1.59,9.89
640165,0.00,-0.27,1.01,0.98,-1.59,4.52
640181,0.01,-0.30,1.01,1.16,-1.53,1.95
640197,0.01,-0.36,1.01,1.53,-1.83,-0.79
640213,-0.00,-0.05,1.00,1.83,-1.83,1.28
640229,0.01,-0.04,1.01,4.64,-1.83,2.93
640245,0.04,-0.15,1.01,0.49,-1.65,16.42
640261,0.01,-0.23,1.01,-2.01,-1.53,28.99
640277,-0.00,-0.26,1.01,-3.85,-1.59,30.82
640293,-0.00,-0.31,1.02,-9.52,-1.89,24.60
640309,-0.01,-0.32,1.01,-13.73,-1.95,11.84
640325,-0.02,-0.33,1.01,-13.31,-1.83,5.68
640341,-0.05,-0.29,1.00,-11.78,-1.65,-5.37
640357,-0.05,-0.28,1.00,-9.22,-1.34,-14.83
640373,-0.02,-0.27,0.99,-5.62,-1.95,-18.07
640389,-0.02,-0.27,1.00,0.79,-1.83,-22.77
640405,-0.02,-0.29,0.96,8.12,-2.38,-26.73
640421,-0.03,-0.26,1.00,11.60,-3.23,-27.95
640437,-0.04,-0.15,1.03,15.38,-1.34,-31.19
640453,-0.05,-0.13,1.01,12.39,-1.65,-30.64
640469,-0.05,-0.10,0.94,5.98,-1.95,-26.18
640485,-0.06,-0.04,1.03,16.30,-2.26,-16.42
640501,-0.04,-0.01,1.03,9.95,-1.77,-15.08
640517,-0.07,-0.07,1.01,-3.60,-2.01,-10.56
640533,-0.05,-0.11,0.92,-11.47,-2.50,-7.57
640549,-0.06,-0.07,0.98,-1.77,-1.65,-5.98
640565,-0.04,-0.02,1.00,5.31,-2.01,-3.36
640581,-0.06,-0.04,0.96,9.83,-1.53,-0.79
640597,-0.07,0.02,1.02,21.42,-1.10,-1.34
640613,-0.08,0.10,1.02,6.41,-2.38,-13.61
640629,-0.06,0.13,1.00,-0.06,-3.36,-31.86
640645,-0.03,0.14,0.98,0.06,-3.91,-41.26
640661,0.01,0.24,1.02,8.18,-2.87,-55.73
640677,0.02,0.38,0.99,-3.05,-2.81,-61.28
640693,0.02,0.47,1.00,0.73,-2.26,-59.39
640709,0.03,0.59,1.00,1.34,-2.20,-49.44
640725,0.07,0.62,0.99,1.95,-2.20,-28.38
640741,0.10,0.62,0.99,0.49,-1.95,-16.60
640757,0.16,0.59,0.99,1.28,-1.89,1.77
640773,-0.01,0.17,0.98,-3.23,-1.83,2.44
640789,0.02,0.20,1.00,1.59,-2.14,-2.62
640805,0.05,0.27,0.99,0.00,-2.32,-13.79
640821,0.04,0.34,0.99,1.77,-1.95,-16.42
640837,0.04,0.36,1.00,3.91,-2.01,-14.53
640853,0.05,0.36,1.00,2.87,-2.08,-4.58
640869,0.05,0.34,1.00,4.46,-2.01,9.89
640885,0.06,0.31,1.00,4.21,-1.65,17.15
640901,0.05,0.27,1.00,3.54,-1.89,31.01
640917,0.00,0.19,1.00,1.04,-1.10,41.56
640933,-0.01,0.16,1.00,1.46,-0.98,45.41
640949,-0.03,0.11,0.99,1.46,-0.61,49.13
640965,-0.03,0.06,1.00,3.17,-0.61,48.71
640981,-0.03,0.03,1.01,3.42,-0.79,48.16
640997,-0.03,0.00,1.01,0.85,-1.53,46.39
641013,-0.05,-0.04,1.00,-8.42,-2.44,41.14
641029,-0.05,-0.06,0.97,-10.62,-2.20,38.57
641045,-0.07,-0.03,1.01,10.19,-1.10,31.49
641061,-0.05,-0.03,1.01,7.39,-1.10,21.97
641077,-0.05,-0.03,1.01,3.78,-1.22,20.81
641093,-0.05,-0.07,1.01,1.10,-1.46,23.32
641109,-0.04,-0.10,1.01,0.67,-1.71,26.55
641125,-0.04,-0.11,1.01,1.77,-2.01,26.12
641141,-0.03,-0.10,1.00,3.23,-1.28,23.38
641157,-0.03,-0.15,0.99,-3.36,-1.10,22.09
641173,-0.04,-0.14,1.01,1.53,-1.34,23.62
641189,-0.03,-0.14,1.01,3.48,-1.46,27.04
641205,-0.02,-0.16,1.01,0.92,-1.77,28.63
641221,-0.02,-0.19,1.01,1.16,-1.83,27.10
641237,-0.02,-0.19,1.01,2.93,-1.46,22.71
641253,-0.01,-0.21,1.01,3.30,-1.28,22.16
641269,-0.01,-0.25,1.00,-0.43,-1.40,21.79
641285,-0.02,-0.28,1.01,0.24,-1.59,21.12
641301,-0.00,-0.35,1.01,-1.83,-1.53,18.68
641317,0.00,-0.35,1.01,-0.79,-1.59,14.65
641333,0.01,-0.12,0.97,-0.06,-1.77,3.91
641349,0.00,-0.02,1.00,4.46,-1.83,2.62
641365,-0.03,-0.07,1.01,4.03,-1.59,5.07
641381,-0.02,-0.11,1.01,2.44,-1.65,17.88
641397,-0.02,-0.13,1.01,0.67,-1.59,27.10
641413,-0.01,-0.17,1.01,-0.12,-1.65,27.95
641429,-0.00,-0.22,1.00,1.04,-1.40,24.84
641445,0.00,-0.24,1.00,1.16,-1.71,19.04
641461,0.01,-0.25,1.01,0.37,-1.95,15.20
641477,-0.03,-0.26,1.01,-3.60,-2.44,4.03
641493,-0.04,-0.25,1.00,-4.82,-2.38,-11.84
641509,-0.04,-0.23,1.01,-3.66,-2.26,-19.04
641525,-0.04,-0.19,1.00,2.56,-1.59,-29.85
641541,-0.03,-0.17,1.01,4.94,-1.59,-33.45
641557,-0.02,-0.12,1.01,3.48,-2.20,-35.83
641573,-0.01,-0.10,1.00,-1.65,-2.56,-33.69
641589,0.00,-0.02,0.99,-3.72,-2.56,-32.10
641605,-0.03,-0.09,0.99,6.96,-2.01,-28.08
641621,-0.03,-0.07,1.03,8.00,-1.77,-27.71
641637,-0.02,-0.08,0.99,4.46,-1.65,-26.73
641653,-0.04,-0.08,1.01,4.03,-2.69,-22.03
641669,-0.01,-0.03,0.99,-7.69,-2.69,-22.22
641685,-0.02,-0.08,0.96,-10.56,-2.56,-21.48
641701,0.00,-0.02,0.99,-1.83,-2.69,-19.96
641717,-0.02,0.03,0.98,14.95,-1.71,-18.37
641733,-0.02,0.07,1.00,23.44,-0.85,-19.71
641749,-0.01,0.15,1.01,3.66,-1.95,-27.34
641765,0.01,0.19,1.00,0.00,-2.75,-26.00
641781,0.01,0.22,1.00,0.24,-2.75,-24.84
641797,0.01,0.26,1.00,0.00,-3.11,-23.01
641813,0.01,0.28,1.00,1.53,-2.75,-18.68
641829,0.01,0.30,1.00,3.05,-2.62,-14.40
641845,0.00,0.26,1.01,0.24,-1.95,-2.62
641861,0.01,0.21,1.00,-0.37,-1.65,7.02
641877,0.01,0.18,1.00,-0.18,-1.65,8.91
641893,0.01,0.17,1.00,-1.28,-1.83,6.90
641909,0.02,0.20,1.00,-3.72,-2.01,-3.54
641925,0.03,0.22,1.00,-4.21,-2.08,-11.66
641941,0.07,0.22,1.00,-1.53,-2.08,-22.52
641957,0.01,0.18,1.01,-5.55,-2.20,-16.11
641973,0.01,0.09,0.98,-6.10,-2.26,-16.85
641989,0.02,0.11,0.99,11.41,-1.83,-28.20
642005,0.04,0.21,1.01,14.34,-1.95,-33.87
642021,0.05,0.22,1.01,9.09,-2.01,-32.10
642037,0.05,0.23,1.00,2.93,-2.26,-19.23
642053,0.05,0.23,1.00,0.85,-2.08,-4.46
642069,0.04,0.24,1.00,0.85,-2.08,0.79
642085,0.04,0.25,1.00,2.56,-1.65,7.87
642101,0.03,0.27,1.00,5.25,-1.28,13.37
642117,0.03,0.28,1.00,5.62,-1.46,17.27
642133,0.02,0.26,1.00,1.65,-1.28,28.75
642149,0.01,0.20,1.00,0.55,-1.10,37.54
642165,0.01,0.19,1.00,1.28,-1.10,40.83
642181,-0.01,0.14,1.01,1.71,-0.98,44.62
642197,-0.03,0.09,1.00,0.98,-1.89,44.25
642213,-0.02,0.07,1.00,-1.59,-2.14,43.15
642229,-0.00,0.02,0.98,-1.40,-1.46,42.11
642245,-0.00,0.04,1.01,7.20,-0.61,37.78
642261,-0.00,0.04,1.00,2.99,-1.28,33.69
642277,-0.02,0.03,1.00,-1.22,-1.28,27.65
642293,-0.04,0.00,1.01,0.43,-1.89,23.07
642309,-0.06,-0.04,1.01,1.46,-1.89,21.36
642325,-0.07,-0.11,0.97,3.48,-1.40,20.26
642341,-0.06,-0.16,1.00,-2.14,-0.61,20.94
642357,-0.08,-0.14,1.01,1.77,-1.28,21.24
642373,-0.06,-0.13,1.01,1.46,-1.59,25.15
642389,-0.08,-0.19,1.02,1.22,-1.65,31.98
642405,-0.08,-0.26,1.00,0.06,-1.46,32.96
642421,-0.05,-0.31,1.01,0.98,-1.04,33.63
642437,-0.03,-0.35,1.00,1.10,-1.22,33.87
642453,-0.00,-0.47,1.01,-1.95,-1.28,29.97
642469,-0.01,-0.50,1.02,1.77,-1.53,14.65
642485,-0.02,-0.50,1.01,-2.87,-1.95,-5.37
642501,0.01,-0.13,1.03,1.04,-1.95,-11.17
642517,-0.06,-0.11,1.00,-2.01,-1.95,-4.94
642533,-0.06,-0.16,1.00,5.49,-2.01,-1.65
642549,0.00,-0.19,1.01,5.92,-1.83,-0.67
642565,0.02,-0.23,1.01,4.33,-1.83,2.20
642581,0.01,-0.25,1.01,3.36,-1.83,2.44
642597,-0.00,-0.28,1.01,1.28,-1.83,1.16
642613,0.00,-0.27,1.01,-0.37,-2.08,-2.56
642629,-0.01,-0.26,1.01,-2.26,-2.32,-4.94
642645,-0.01,-0.24,1.01,-9.03,-2.62,-11.96
642661,-0.01,-0.22,1.00,-10.99,-2.50,-18.25
642677,-0.02,-0.21,0.99,-8.85,-2.26,-20.63
642693,-0.04,-0.19,0.99,1.28,-1.40,-23.32
642709,-0.04,-0.18,1.00,11.72,-1.95,-22.58
642725,-0.02,-0.17,1.00,14.28,-2.38,-21.48
642741,-0.00,-0.09,1.05,17.52,-2.50,-16.54
642757,-0.02,-0.10,1.00,2.20,-1.46,-11.90
642773,-0.05,-0.09,1.00,0.31,-1.95,-9.64
642789,-0.12,-0.11,1.02,-0.73,-2.81,-17.70
642805,-0.08,-0.13,0.97,-8.85,-2.44,-37.72
642821,-0.09,-0.05,1.02,-0.18,-2.38,-44.25
642837,-0.04,0.02,0.96,-6.53,-2.50,-54.63
642853,-0.04,0.17,1.00,10.50,-1.10,-54.75
642869,-0.03,0.21,1.01,10.13,-1.04,-55.54
642885,-0.02,0.31,0.99,-1.59,-2.75,-49.50
642901,-0.00,0.42,1.00,4.27,-2.69,-39.73
642917,0.02,0.45,0.99,5.68,-2.87,-35.34
642933,0.02,0.47,0.98,10.25,-2.44,-23.86
642949,0.08,0.48,0.98,0.92,-2.08,-9.89
642965,0.07,0.50,1.00,3.85,-2.08,-0.43
642981,0.08,0.44,1.00,2.20,-1.83,13.12
642997,0.01,-0.02,1.00,-0.98,-1.89,8.73
643013,0.00,0.03,1.00,-2.38,-2.01,2.62
643029,0.01,0.12,1.00,-8.73,-2.38,-9.89
643045,0.05,0.21,0.98,1.83,-2.14,-21.36
643061,0.05,0.26,1.00,10.13,-1.83,-21.85
643077,0.04,0.29,1.00,5.25,-1.77,-13.67
643093,0.03,0.29,1.00,2.81,-1.65,6.47
643109,0.03,0.28,0.99,2.38,-1.46,16.30
643125,0.03,0.21,1.00,2.20,-1.22,31.68
643141,0.01,0.13,1.00,1.16,-0.98,39.31
643157,0.01,0.10,0.99,0.12,-0.98,41.26
643173,-0.00,0.04,1.01,0.79,-1.16,40.16
643189,-0.01,0.01,1.00,1.65,-1.10,35.71
643205,-0.01,0.01,1.00,2.56,-1.53,34.00
643221,-0.01,0.00,1.01,-1.53,-2.26,30.94
643237,-0.01,-0.02,1.00,-8.61,-2.08,29.48
643253,-0.02,-0.02,0.99,-8.30,-2.08,29.97
643269,-0.03,-0.03,1.00,2.26,-1.46,29.42
643285,-0.01,-0.02,1.00,7.87,-1.22,23.86
643301,-0.00,-0.01,1.01,9.16,-1.34,21.67
643317,-0.00,-0.01,1.01,5.68,-1.22,21.48
643333,-0.00,-0.02,1.01,1.16,-1.34,24.84
643349,-0.01,-0.03,1.00,0.37,-1.59,27.53
643365,-0.03,-0.05,1.00,0.43,-1.77,30.88
643381,-0.05,-0.07,1.01,1.53,-1.65,31.37
643397,-0.05,-0.08,1.01,2.69,-1.46,31.07
643413,-0.03,-0.11,1.00,2.81,-1.53,29.97
643429,-0.00,-0.11,1.00,2.01,-1.53,29.79
643445,0.00,-0.10,1.01,0.67,-1.34,29.66
643461,0.01,-0.11,1.01,-0.43,-1.46,29.91
643477,0.01,-0.12,1.00,0.98,-1.34,32.59
643493,-0.02,-0.15,1.00,0.31,-1.22,32.78
643509,-0.05,-0.25,1.01,-2.38,-1.59,28.87
643525,-0.05,-0.30,1.00,0.31,-1.59,25.51
643541,-0.04,-0.35,1.01,0.12,-1.59,22.58
643557,0.00,0.02,1.02,9.77,-1.46,3.78
643573,-0.05,-0.09,1.01,4.27,-1.46,9.28
643589,-0.05,-0.14,1.00,1.16,-1.65,16.17
643605,-0.04,-0.17,1.01,-2.26,-1.83,20.75
643621,-0.04,-0.19,1.00,1.28,-1.59,14.77
643637,-0.04,-0.22,1.00,1.89,-1.59,10.56
643653,-0.02,-0.23,1.01,1.04,-1.77,6.29
643669,-0.01,-0.24,1.01,-0.79,-1.89,5.25
643685,-0.01,-0.21,1.01,-3.91,-2.20,-0.43
643701,0.01,-0.10,1.00,-8.91,-2.32,-12.76
643717,0.00,-0.11,0.95,-6.96,-2.38,-17.40
643733,0.01,-0.03,1.00,10.74,-1.53,-23.32
643749,-0.00,0.01,1.03,15.26,-1.34,-21.85
643765,-0.01,-0.01,1.01,8.79,-1.59,-18.19
643781,-0.01,-0.02,1.00,2.87,-2.08,-5.62
643797,-0.01,-0.05,1.01,2.08,-2.26,2.32
643813,-0.01,-0.03,1.00,0.79,-2.14,3.85
643829,0.01,-0.03,1.01,1.16,-2.08,4.64
643845,0.00,0.01,1.01,-2.93,-1.89,0.12
643861,-0.00,0.01,1.00,-5.37,-2.14,-1.71
643877,-0.01,-0.03,0.98,-2.99,-2.14,-3.23
643893,-0.03,-0.04,1.00,12.27,-2.01,-5.49
643909,-0.04,-0.04,1.00,15.20,-1.65,-8.54
643925,-0.05,-0.02,1.01,10.25,-1.46,-20.81
643941,-0.03,-0.00,1.00,-3.05,-2.26,-28.87
643957,-0.02,0.01,1.00,-3.05,-2.56,-30.88
643973,-0.01,0.03,1.00,0.55,-2.69,-32.90
643989,-0.00,0.02,1.00,-0.18,-2.87,-32.04
644005,0.00,0.02,1.00,-0.61,-3.11,-30.82
644021,0.01,0.03,1.00,-0.85,-2.87,-30.33
644037,0.01,0.05,0.99,0.49,-2.08,-33.20
644053,0.02,0.09,1.01,2.99,-2.14,-35.22
644069,0.03,0.14,1.00,-0.12,-2.14,-37.78
644085,0.04,0.24,1.00,3.85,-1.89,-39.86
644101,0.03,0.29,1.00,4.58,-1.95,-39.00
644117,0.04,0.37,1.00,1.83,-2.26,-32.53
644133,0.06,0.40,1.00,2.14,-2.32,-22.77
644149,0.06,0.39,1.00,2.69,-2.14,-16.78
644165,0.01,0.03,1.00,-0.49,-2.01,-0.92
644181,-0.03,0.09,1.00,-3.11,-2.01,-5.74
644197,-0.02,0.09,1.00,-1.28,-2.20,-17.64
644213,-0.00,0.16,1.00,8.48,-2.08,-37.60
644229,0.03,0.26,1.00,8.06,-2.38,-50.29
644245,0.04,0.29,1.00,6.59,-2.32,-50.11
644261,0.05,0.34,1.00,5.80,-2.50,-38.27
644277,0.03,0.35,1.00,2.50,-2.44,-18.07
644293,0.02,0.37,1.00,0.92,-2.75,-7.57
644309,0.00,0.36,1.00,-0.73,-2.32,13.73
644325,0.00,0.32,1.00,-0.24,-1.40,30.52
644341,-0.01,0.29,0.99,0.98,-1.46,35.16
644357,-0.03,0.23,1.00,3.42,-0.85,40.04
644373,-0.02,0.12,1.00,4.64,-0.37,44.56
644389,-0.02,0.09,1.01,4.70,-0.61,45.84
644405,-0.00,0.03,1.01,0.43,-0.92,43.52
644421,0.01,0.02,0.99,-5.68,-2.44,32.65
644437,0.03,0.00,0.97,-7.39,-2.14,25.51
644453,0.00,0.09,1.02,8.67,-1.10,12.08
644469,-0.02,0.10,1.00,2.93,-1.83,0.37
644485,-0.04,0.08,1.00,0.00,-2.01,-1.95
644501,-0.03,0.01,1.01,0.18,-2.01,0.12
644517,-0.03,-0.06,1.00,2.26,-2.01,11.35
644533,-0.05,-0.11,0.97,1.65,-1.40,17.76
644549,-0.05,-0.13,1.02,-1.77,-1.34,29.24
644565,-0.06,-0.18,1.01,-1.77,-1.53,37.90
644581,-0.07,-0.21,1.01,1.40,-1.04,41.56
644597,-0.06,-0.27,1.01,3.30,-0.92,42.85
644613,-0.04,-0.34,1.01,-0.55,-1.22,33.57
644629,0.01,-0.45,1.01,0.85,-1.04,27.83
644645,-0.01,-0.48,1.01,2.81,-1.10,15.93
644661,0.01,-0.48,1.01,2.08,-1.83,-0.24
644677,0.01,-0.47,1.01,2.50,-2.08,-10.74
644693,0.05,-0.37,1.00,-0.31,-2.62,-24.05
644709,0.04,-0.13,1.02,1.95,-2.32,-7.14
644725,-0.01,-0.07,1.00,-0.61,-2.08,-1.34
644741,-0.01,-0.16,1.01,4.27,-1.77,1.83
644757,0.02,-0.18,1.00,3.48,-1.71,5.19
644773,0.05,-0.21,1.01,2.20,-1.53,12.63
644789,0.06,-0.24,1.01,-0.06,-1.77,15.14
644805,0.04,-0.25,1.01,-0.79,-1.71,14.28
644821,0.02,-0.23,1.00,-1.89,-2.14,10.44
644837,0.01,-0.20,1.01,-1.22,-2.14,4.82
644853,0.01,-0.18,1.00,-0.67,-2.26,2.56
644869,0.01,-0.14,1.00,1.77,-1.89,1.04
644885,-0.03,-0.09,1.01,2.75,-2.01,0.31
644901,-0.05,-0.06,1.00,0.18,-2.08,-1.71
644917,-0.03,-0.02,1.00,-0.24,-2.01,-3.66
644933,0.00,-0.02,1.00,3.30,-1.53,2.01
644949,0.01,-0.04,1.00,4.27,-1.34,7.32
644965,0.01,-0.08,1.00,2.62,-1.65,17.64
644981,-0.03,-0.06,0.98,2.01,-1.83,24.90
644997,-0.06,-0.00,1.02,5.37,-1.89,26.43
645013,-0.10,-0.04,1.00,-1.77,-1.83,15.08
645029,-0.02,-0.03,1.00,1.10,-1.71,-5.19
645045,-0.01,-0.05,0.99,4.15,-1.71,-11.47
645061,-0.03,-0.06,1.00,3.97,-2.38,-14.59
645077,-0.01,-0.03,1.00,-4.33,-2.69,-15.14
645093,-0.02,-0.03,0.98,-3.91,-2.50,-16.60
645109,0.01,0.07,1.03,-0.98,-2.26,-18.74
645125,0.00,0.09,0.97,-8.42,-1.89,-16.42
645141,0.00,0.10,0.98,1.10,-2.14,-13.12
645157,0.01,0.14,1.00,11.41,-1.28,-15.01
645173,0.02,0.19,1.01,10.44,-1.71,-19.78
645189,0.02,0.22,1.01,7.08,-2.14,-21.18
645205,0.01,0.29,1.00,0.92,-2.69,-19.53
645221,0.04,0.31,1.00,0.92,-2.56,-16.54
645237,0.04,0.31,1.00,2.75,-2.26,-14.83
645253,0.02,0.36,0.98,1.59,-2.20,-11.29
645269,0.10,0.38,1.00,5.62,-2.20,-12.27
645285,0.05,0.23,1.00,1.40,-1.95,-9.83
645301,-0.02,0.11,1.00,-0.61,-2.14,-9.28
645317,0.01,0.12,1.00,0.06,-2.50,-25.27
645333,0.02,0.14,1.00,1.40,-2.44,-31.68
645349,0.04,0.22,1.00,1.53,-2.44,-37.90
645365,0.04,0.28,1.00,3.78,-2.14,-34.91
645381,0.05,0.31,1.00,3.97,-2.20,-29.42
645397,0.05,0.36,1.00,3.05,-1.89,-11.47
645413,0.05,0.35,1.00,2.14,-1.40,8.91
645429,0.04,0.32,1.00,1.95,-1.28,18.31
645445,0.00,0.24,1.01,1.28,-1.95,34.79
645461,-0.01,0.12,1.00,-6.41,-2.38,44.74
645477,-0.01,0.07,0.97,-7.93,-2.01,46.88
645493,-0.03,0.04,1.01,8.73,-1.16,47.12
645509,-0.04,-0.00,1.00,3.23,-0.92,41.26
645525,-0.05,-0.02,1.01,2.14,-1.04,38.57
645541,-0.03,-0.08,1.01,-1.83,-1.40,32.90
645557,-0.04,-0.11,1.01,-0.43,-2.01,22.28
645573,-0.04,-0.12,1.01,0.18,-1.89,14.65
645589,-0.04,-0.11,1.01,3.91,-2.08,-0.92
645605,-0.03,-0.11,0.99,5.37,-1.53,-8.79
645621,-0.01,-0.04,1.01,5.43,-1.46,-9.34
645637,-0.00,-0.01,1.01,0.73,-1.77,-3.17
645653,-0.01,-0.02,1.00,1.10,-2.01,8.79
645669,0.01,-0.03,1.01,0.55,-2.01,17.52
645685,-0.03,-0.12,1.01,-2.26,-1.95,32.90
645701,-0.04,-0.16,1.00,0.12,-1.53,37.60
645717,-0.04,-0.21,1.01,2.50,-1.34,36.99
645733,-0.01,-0.27,1.00,1.46,-1.28,31.86
645749,0.01,-0.28,1.00,1.46,-1.46,28.44
645765,0.03,-0.34,1.01,-1.34,-1.65,27.53
645781,0.04,-0.41,1.02,-9.03,-1.95,22.64
645797,-0.01,-0.30,0.98,-11.23,-2.08,17.58
645813,-0.01,-0.06,1.00,16.24,-1.65,3.91
645829,-0.01,-0.10,1.01,7.69,-1.28,14.89
645845,-0.01,-0.12,1.01,3.48,-1.40,21.67
645861,-0.00,-0.20,1.00,0.12,-1.65,27.83
645877,0.00,-0.24,1.01,1.59,-1.59,25.70
645893,-0.00,-0.26,1.01,1.46,-1.65,21.79
645909,-0.01,-0.24,1.01,-0.06,-1.95,10.13
645925,-0.01,-0.22,1.00,-1.59,-1.95,-2.56
645941,-0.00,-0.19,1.00,-0.61,-1.95,-8.36
645957,-0.01,-0.15,1.00,2.20,-1.71,-17.09
645973,-0.01,-0.12,1.01,3.97,-1.77,-18.43
645989,-0.01,-0.11,1.00,3.78,-1.95,-16.30
646005,-0.01,-0.10,1.01,2.44,-2.08,-8.61
646021,-0.01,-0.11,1.01,1.40,-2.20,-0.43
646037,0.01,-0.08,1.00,2.08,-2.20,4.27
646053,-0.05,-0.06,1.00,4.46,-1.22,11.90
646069,-0.04,-0.10,1.02,-0.73,-1.46,4.39
646085,-0.03,-0.13,1.00,0.37,-1.53,-2.87
646101,-0.06,-0.17,1.01,6.23,-2.26,-16.36
646117,-0.06,-0.15,1.02,1.46,-2.81,-27.34
646133,-0.05,-0.14,1.01,-3.72,-2.87,-30.46
646149,-0.01,-0.05,1.01,-8.42,-2.56,-36.01
646165,-0.05,0.01,0.96,5.80,-2.26,-37.23
646181,-0.04,0.07,1.00,16.66,-1.59,-41.38
646197,-0.08,0.18,1.02,7.08,-2.14,-52.37
646213,-0.03,0.24,1.01,-0.37,-3.30,-52.12
646229,-0.01,0.27,1.00,-0.67,-3.11,-48.10
646245,0.02,0.31,0.99,-0.18,-2.99,-38.82
646261,0.06,0.34,1.01,2.87,-2.50,-31.49
646277,0.07,0.33,1.00,3.48,-2.32,-28.02
646293,0.07,0.37,0.98,-1.77,-2.14,-20.14
646309,0.06,0.40,0.99,-0.18,-2.14,-9.95
646325,0.05,0.42,1.00,-0.06,-2.14,-4.76
646341,0.09,0.37,1.00,0.85,-1.83,1.89
646357,-0.01,0.06,1.00,-6.90,-1.89,1.22
646373,-0.01,0.07,1.00,-8.00,-2.08,-3.97
646389,0.02,0.12,0.99,0.61,-2.20,-18.68
646405,0.03,0.23,1.00,9.16,-2.01,-26.31
646421,0.03,0.25,1.00,9.28,-2.08,-27.22
646437,0.04,0.26,1.01,5.49,-2.01,-18.55
646453,0.02,0.26,1.00,1.28,-1.77,-2.20
646469,0.01,0.24,1.01,1.22,-1.65,5.80
646485,0.01,0.25,1.00,0.61,-1.28,18.01
646501,0.03,0.24,0.99,-1.10,-1.40,23.86
646517,0.04,0.22,0.99,0.06,-1.10,25.70
646533,0.01,0.19,1.00,6.04,-1.04,29.72
646549,0.01,0.15,1.01,5.55,-1.10,34.30
646565,0.00,0.14,1.01,3.36,-1.16,37.17
646581,-0.03,0.10,1.01,-2.50,-2.08,41.63
646597,-0.02,0.06,1.00,-11.60,-2.62,42.72
646613,-0.02,0.03,0.97,-13.43,-2.44,42.48
646629,-0.01,0.01,1.00,6.59,-1.40,40.16
646645,-0.03,0.01,1.00,8.00,-1.22,31.25
646661,-0.02,0.02,1.01,9.40,-1.22,28.38
646677,-0.03,0.02,1.00,2.32,-1.34,27.89
646693,-0.05,0.01,1.00,1.46,-2.08,30.52
646709,-0.06,-0.06,1.01,2.75,-2.08,32.10
646725,-0.07,-0.16,1.01,3.78,-1.34,35.10
646741,-0.03,-0.13,1.03,-6.10,-0.79,37.78
646757,-0.04,-0.23,1.00,-2.93,-0.98,37.78
646773,-0.03,-0.20,1.00,4.82,-1.28,34.24
646789,-0.00,-0.16,1.02,4.39,-1.59,30.27
646805,-0.04,-0.23,1.00,-1.59,-1.83,28.63
646821,-0.04,-0.24,1.01,0.73,-1.77,28.38
646837,-0.05,-0.25,1.00,0.67,-1.65,28.63
646853,-0.02,-0.32,1.01,0.00,-1.28,26.06
646869,-0.02,-0.37,1.01,4.39,-1.34,20.69
646885,-0.01,-0.40,1.01,1.77,-1.46,18.43
646901,-0.01,-0.22,0.97,-3.54,-1.83,11.78
646917,-0.07,-0.13,1.01,8.12,-1.59,15.50
646933,-0.06,-0.18,1.00,0.67,-1.53,20.32
646949,-0.03,-0.26,1.01,-3.66,-1.89,23.56
646965,-0.00,-0.32,1.01,-8.06,-1.83,18.92
646981,-0.00,-0.33,1.01,-8.42,-1.71,15.08
646997,-0.01,-0.32,1.01,-9.16,-2.14,5.68
647013,-0.01,-0.29,1.01,-14.04,-2.08,-7.20
647029,-0.02,-0.26,0.99,-14.65,-1.77,-13.98
647045,-0.03,-0.20,0.97,-8.00,-1.04,-26.92
647061,-0.03,-0.14,0.99,4.94,-1.34,-33.39
647077,-0.03,-0.12,1.00,9.22,-2.08,-33.26
647093,-0.01,-0.11,1.00,14.53,-2.20,-26.55
647109,0.02,-0.07,0.99,26.12,-2.26,-14.83
647125,0.01,-0.04,1.02,25.57,-1.04,-10.38
647141,-0.04,0.05,1.02,11.78,-1.28,-3.91
647157,-0.06,0.06,1.00,-2.75,-2.75,-4.33
647173,-0.05,0.04,1.00,-2.69,-2.81,-7.93
647189,-0.04,0.03,1.04,-3.42,-2.26,-17.82
647205,-0.01,-0.01,1.00,-5.55,-1.71,-23.50
647221,-0.01,0.00,0.99,-4.21,-1.77,-24.23
647237,-0.00,0.06,0.99,9.46,-1.95,-21.79
647253,-0.01,0.11,1.03,19.65,-1.65,-19.78
647269,-0.04,0.12,1.02,11.29,-1.59,-21.12
647285,-0.02,0.11,1.00,-3.78,-2.75,-22.64
647301,0.00,0.11,1.00,1.22,-2.38,-21.91
647317,0.01,0.11,1.00,3.66,-2.50,-21.48
647333,0.02,0.13,1.00,2.62,-2.81,-21.24
647349,0.04,0.12,0.99,1.34,-2.69,-17.58
647365,0.04,0.16,1.02,2.32,-2.32,-15.08
647381,0.02,0.20,1.01,-4.94,-2.01,-13.37
647397,0.01,0.23,0.99,0.85,-2.08,-15.63
647413,-0.00,0.25,1.00,8.00,-1.83,-15.44
647429,0.01,0.24,1.01,5.86,-1.77,-13.12
647445,0.03,0.25,1.00,-1.34,-1.89,-11.47
647461,0.05,0.26,1.00,-1.04,-1.83,-14.28
647477,0.01,0.27,1.00,2.38,-2.01,-22.71
647493,0.04,0.15,1.00,5.13,-2.20,-34.36
647509,0.05,0.12,1.00,7.63,-2.26,-41.75
647525,0.04,0.17,1.00,5.98,-2.26,-45.90
647541,0.02,0.21,1.00,1.04,-2.75,-38.82
647557,0.02,0.25,1.00,-0.85,-2.81,-31.43
647573,0.07,0.29,1.00,-0.55,-2.32,-15.99
647589,0.11,0.32,1.00,2.08,-1.71,-3.85
647605,0.09,0.32,1.00,2.26,-1.65,1.40
647621,0.03,0.29,1.00,3.11,-1.83,12.33
647637,0.00,0.24,0.99,3.36,-1.40,24.23
647653,-0.01,0.22,1.00,3.30,-1.10,29.97
647669,-0.01,0.16,1.00,2.69,-0.73,41.26
647685,-0.01,0.09,1.01,0.12,-0.67,48.28
647701,-0.01,0.08,1.01,-0.06,-1.22,48.71
647717,-0.02,0.04,1.00,-6.59,-2.14,43.70
647733,-0.03,0.01,0.98,-7.45,-2.01,38.02
647749,-0.05,-0.01,1.00,4.88,-1.89,35.22
647765,-0.05,-0.01,1.00,7.57,-1.28,25.63
647781,-0.05,0.01,1.01,2.93,-0.98,20.75
647797,-0.03,-0.00,1.00,0.12,-1.46,20.14
647813,-0.04,-0.05,1.01,0.43,-1.95,18.86
647829,-0.05,-0.08,1.01,2.93,-1.77,16.66
647845,-0.08,-0.13,1.00,4.09,-1.22,15.01
647861,-0.05,-0.10,1.00,-1.95,-1.10,10.80
647877,-0.04,-0.09,1.00,0.98,-1.40,12.88
647893,-0.02,-0.07,1.01,2.56,-1.77,16.48
647909,-0.01,-0.15,1.00,-2.38,-2.20,21.55
647925,-0.03,-0.18,1.00,0.37,-2.14,20.94
647941,-0.07,-0.18,1.01,2.81,-1.53,13.85
647957,-0.03,-0.17,1.01,3.66,-1.65,6.77
647973,-0.01,-0.20,1.00,0.73,-1.53,2.62
647989,0.01,-0.17,1.00,5.19,-1.40,-1.40
648005,0.05,-0.22,1.01,0.67,-1.83,0.37
648021,0.03,-0.22,1.01,1.46,-2.08,0.37
648037,0.01,-0.23,1.01,1.22,-2.08,-0.85
648053,0.02,-0.25,1.01,-0.43,-2.01,-0.73
648069,0.04,-0.27,1.01,-0.85,-2.08,0.31
648085,0.10,-0.24,1.00,-3.78,-1.89,3.66
648101,-0.01,-0.09,1.01,0.31,-1.77,10.25
648117,0.00,-0.11,1.01,-1.04,-1.77,16.97
648133,0.01,-0.18,1.00,0.37,-1.59,27.16
648149,0.02,-0.22,1.01,0.37,-1.65,31.80
648165,0.02,-0.24,1.01,-0.49,-1.65,30.94
648181,0.03,-0.27,1.01,0.37,-1.71,23.38
648197,0.00,-0.27,1.00,2.99,-1.65,10.01
648213,0.00,-0.28,1.00,3.54,-1.83,2.75
648229,-0.01,-0.24,1.01,3.30,-2.38,-9.52
648245,-0.01,-0.18,1.01,2.20,-2.75,-19.23
648261,-0.00,-0.17,1.00,1.77,-2.75,-22.52
648277,0.00,-0.13,1.01,2.87,-2.62,-25.76
648293,0.00,-0.08,1.01,3.30,-1.83,-24.78
648309,-0.01,-0.07,1.00,3.42,-1.53,-22.28
648325,-0.02,-0.03,1.00,2.93,-2.08,-13.12
648341,-0.04,0.00,1.00,-0.24,-2.38,-2.62
648357,-0.05,-0.02,0.98,-0.67,-2.20,1.04
648373,-0.04,0.01,1.00,3.23,-1.59,2.50
648389,-0.00,0.00,1.00,2.69,-1.40,-2.01
648405,-0.01,-0.02,1.00,3.30,-1.46,-3.91
648421,-0.04,-0.03,1.01,2.87,-2.20,-5.98
648437,-0.03,0.00,1.01,-0.43,-2.50,-3.11
648453,-0.05,0.01,1.01,-1.28,-2.26,-1.71
648469,-0.06,0.08,1.02,-8.42,-2.38,-6.10
648485,-0.04,0.06,0.97,-8.48,-1.77,-15.26
648501,-0.02,0.09,0.97,4.70,-2.08,-19.04
648517,-0.00,0.16,1.01,17.70,-1.22,-28.99
648533,0.02,0.25,1.01,7.93,-1.95,-31.43
648549,0.02,0.29,1.01,1.40,-2.44,-29.42
648565,0.03,0.35,1.00,-2.01,-2.56,-21.00
648581,0.05,0.36,1.00,-4.52,-2.50,-15.01
648597,0.05,0.34,1.00,-4.76,-2.20,-12.82
648613,0.03,0.31,0.99,-3.42,-1.89,-8.54
648629,0.10,0.24,0.99,-3.48,-1.71,-5.86
648645,0.00,0.10,1.03,-5.00,-1.46,-3.36
648661,-0.01,0.07,0.99,-13.18,-1.59,-10.93
648677,0.01,0.12,0.99,-3.78,-1.65,-22.64
648693,0.02,0.17,1.00,1.04,-1.77,-26.18
648709,0.05,0.24,1.00,3.23,-1.83,-27.28
648725,0.04,0.28,1.01,2.26,-1.59,-17.70
648741,0.05,0.28,1.00,0.43,-1.40,-10.99
648757,0.03,0.26,1.01,0.00,-1.28,5.55
648773,0.06,0.22,1.00,-1.83,-1.59,19.23
648789,0.03,0.19,0.99,1.04,-2.08,25.09
648805,0.02,0.14,1.00,6.77,-2.32,33.75
648821,0.02,0.12,1.00,3.78,-2.62,38.15
648837,0.01,0.08,1.00,2.56,-2.99,38.94
648853,0.01,0.03,1.00,3.17,-2.38,37.84
648869,-0.01,0.02,1.00,3.97,-2.56,34.61
648885,-0.05,0.01,1.00,6.90,-2.01,33.87
648901,-0.05,-0.02,1.01,6.65,-1.04,33.14
648917,-0.04,-0.04,1.00,6.16,-1.22,32.29
648933,-0.01,-0.07,1.00,7.02,-1.65,31.37
648949,0.01,-0.10,1.01,7.69,-2.08,29.05
648965,0.01,-0.10,1.01,5.86,-2.01,27.83
648981,0.01,-0.06,1.03,4.52,-1.77,23.93
648997,-0.04,-0.07,1.00,-8.85,-1.40,20.32
649013,-0.05,-0.08,0.99,-6.71,-1.59,19.96
649029,-0.04,-0.06,0.99,8.36,-1.83,21.42
649045,-0.02,-0.11,1.02,11.90,-1.71,21.18
649061,-0.02,-0.15,1.01,6.35,-1.65,21.55
649077,-0.01,-0.19,1.01,1.40,-1.77,26.12
649093,-0.02,-0.26,1.00,-2.50,-1.71,24.84
649109,-0.04,-0.27,0.99,-2.62,-1.59,21.48
649125,-0.03,-0.32,1.02,0.31,-1.65,15.38
649141,-0.04,-0.38,1.01,-8.48,-1.83,7.63
649157,-0.02,-0.24,0.98,-9.77,-1.95,4.09
649173,0.01,-0.04,0.99,5.37,-1.95,2.50
649189,-0.02,-0.10,1.00,12.21,-1.40,7.57
649205,-0.03,-0.12,1.01,12.57,-1.46,11.54
649221,-0.01,-0.14,1.01,4.39,-1.65,19.47
649237,-0.00,-0.19,1.00,-1.65,-1.83,23.13
649253,-0.01,-0.21,1.00,-0.92,-1.77,22.16
649269,-0.03,-0.21,1.01,-0.61,-1.59,15.56
649285,-0.03,-0.19,1.00,-2.69,-1.59,2.32
649301,-0.02,-0.17,1.00,-2.56,-1.65,-5.49
649317,-0.00,-0.13,1.00,-0.73,-1.40,-16.85
649333,-0.01,-0.09,1.01,-2.93,-1.16,-21.18
649349,-0.01,-0.08,1.01,-4.33,-1.46,-21.85
649365,-0.03,-0.07,1.00,-4.03,-2.08,-21.97
649381,-0.04,-0.06,1.00,0.98,-2.20,-20.32
649397,-0.04,-0.06,1.00,3.54,-2.14,-19.29
649413,-0.04,-0.07,0.98,5.49,-2.20,-14.89
649429,-0.02,-0.07,1.01,9.46,-2.20,-7.57
649445,-0.01,-0.08,1.02,7.69,-1.77,-5.49
649461,-0.02,-0.10,1.01,2.99,-1.22,-6.59
649477,-0.02,-0.10,1.00,-1.95,-2.14,-11.41
649493,-0.02,-0.09,1.00,-1.10,-2.56,-13.06
649509,0.01,-0.06,1.04,-0.79,-2.69,-17.52
649525,-0.01,-0.06,1.01,0.55,-1.83,-17.09
649541,-0.01,-0.04,1.02,3.97,-2.32,-16.36
649557,-0.04,0.02,1.01,-4.21,-1.59,-15.75
649573,-0.04,0.02,0.98,-0.18,-2.44,-16.11
649589,0.00,0.03,0.99,8.30,-2.56,-18.43
649605,0.01,0.05,0.99,12.21,-1.28,-24.66
649621,0.02,0.10,1.02,10.13,-1.83,-26.31
649637,0.03,0.13,1.01,4.64,-2.38,-25.76
649653,0.02,0.17,1.00,-1.46,-2.20,-21.73
649669,0.01,0.21,1.00,-5.55,-3.17,-17.40
649685,0.01,0.21,1.00,-6.35,-3.17,-16.72
649701,0.03,0.23,0.99,0.37,-2.87,-17.27
649717,0.05,0.29,1.00,3.91,-2.26,-17.03
649733,0.05,0.31,0.99,5.62,-1.83,-14.22
649749,0.06,0.37,1.00,6.53,-1.89,-9.95
649765,0.08,0.28,1.01,4.64,-2.01,-5.43
649781,-0.00,0.09,1.03,-2.20,-1.95,-0.12
649797,-0.01,0.08,0.99,-18.25,-2.26,-11.72
649813,0.04,0.15,0.98,-4.15,-1.77,-28.50
649829,0.05,0.19,0.99,5.43,-1.83,-33.39
649845,0.06,0.29,1.01,9.03,-1.65,-32.53
649861,0.07,0.33,1.00,5.68,-1.16,-19.90
649877,0.04,0.34,1.00,5.92,-1.10,-11.47
649893,0.03,0.30,1.00,3.85,-1.04,5.80
649909,0.02,0.28,1.00,-0.92,-1.10,18.74
649925,0.01,0.23,1.00,-1.10,-1.22,22.46
649941,-0.01,0.19,1.01,1.65,-1.71,27.22
649957,-0.01,0.16,1.01,2.08,-1.53,32.78
649973,-0.01,0.10,1.00,1.83,-2.32,35.28
649989,-0.00,0.09,1.00,0.24,-2.08,37.78
650005,-0.01,0.08,0.99,-1.95,-1.77,37.17