time,accel_x,accel_y,accel_z,gyro_x,gyro_y,gyro_z
590022,-0.02,-0.20,1.01,1.77,-1.16,21.97
590037,-0.00,-0.26,1.01,1.83,-1.16,27.59
590053,0.00,-0.28,1.00,1.59,-1.10,28.08
590069,0.00,-0.31,1.01,0.73,-1.16,25.39
590085,0.00,-0.30,1.01,0.12,-1.46,15.75
590101,-0.01,-0.27,1.01,-0.49,-1.65,9.77
590117,-0.05,-0.17,1.00,-1.04,-2.26,-1.53
590133,-0.03,-0.12,1.00,0.49,-2.26,-12.02
590149,-0.01,-0.11,1.00,0.73,-1.89,-14.77
590165,0.00,-0.12,1.00,0.43,-2.26,-13.18
590181,-0.00,-0.12,1.00,4.03,-2.26,-9.40
590197,-0.01,-0.12,1.01,2.20,-2.38,-8.67
590213,-0.01,-0.11,1.00,-0.92,-1.95,-9.83
590229,-0.01,-0.08,1.01,2.99,-1.46,-14.47
590245,-0.02,-0.06,1.01,0.18,-1.65,-18.92
590261,-0.03,-0.03,0.99,-2.87,-2.75,-29.05
590277,-0.01,-0.06,0.93,1.10,-2.75,-33.94
590293,-0.01,0.03,1.05,11.54,-2.32,-32.84
590309,-0.02,0.02,1.00,-0.79,-2.14,-31.49
590325,-0.04,0.06,1.00,-0.55,-3.17,-26.92
590341,-0.05,0.05,1.02,-3.11,-3.23,-26.92
590357,0.02,0.11,1.00,-16.54,-2.50,-23.86
590373,0.01,0.15,0.98,-10.01,-2.14,-17.33
590389,0.01,0.17,0.97,-3.17,-1.83,-13.79
590405,-0.01,0.20,0.98,13.31,-1.59,-4.39
590421,-0.00,0.23,1.02,20.69,-0.73,1.95
590437,-0.00,0.23,1.02,14.53,-1.34,3.72
590453,0.01,0.24,1.00,-0.43,-2.56,8.36
590469,0.02,0.24,1.01,-4.52,-2.38,7.45
590485,0.03,0.25,1.00,-5.00,-2.26,5.43
590501,0.05,0.31,1.01,-3.11,-2.32,1.04
590517,0.05,0.32,1.00,1.71,-2.38,-0.92
590533,0.05,0.35,0.99,4.88,-2.32,-1.22
590549,0.07,0.20,1.05,3.60,-2.08,-1.28
590565,-0.06,0.10,1.05,-30.82,-1.65,-5.19
590581,-0.08,0.02,0.95,-30.58,-1.71,-16.97
590597,0.02,0.08,0.98,1.16,-1.53,-34.18
590613,0.04,0.10,0.99,16.11,-1.71,-40.16
590629,0.06,0.17,1.00,21.91,-1.71,-40.71
590645,0.06,0.23,1.02,22.40,-1.77,-38.57
590661,0.05,0.25,1.01,1.71,-1.77,-34.18
590677,0.04,0.29,1.01,10.74,-1.89,-30.88
590693,0.06,0.31,1.00,5.43,-2.01,-20.14
590709,0.06,0.30,1.00,4.70,-1.95,-13.37
590725,0.06,0.29,1.00,2.38,-1.71,1.89
590741,0.04,0.25,1.01,1.10,-2.32,16.97
590757,0.04,0.23,1.00,-2.75,-2.87,23.62
590773,0.01,0.18,0.97,-10.01,-2.69,35.77
590789,-0.03,0.17,1.00,4.82,-1.46,43.15
590805,-0.03,0.15,1.00,5.37,-1.10,43.09
590821,-0.04,0.10,1.00,3.42,-1.28,43.95
590837,-0.03,0.04,1.01,1.71,-1.22,47.67
590853,-0.02,0.02,1.00,0.55,-0.98,48.34
590869,-0.03,-0.00,1.00,2.01,-1.83,45.53
590885,-0.05,0.04,1.01,4.76,-0.79,39.25
590901,-0.09,-0.02,0.99,-1.95,-0.85,35.71
590917,-0.09,-0.01,1.01,5.80,-1.65,27.34
590933,-0.01,-0.00,1.00,6.71,-1.53,21.97
590949,-0.01,-0.07,1.00,4.21,-1.10,18.74
590965,-0.05,-0.10,1.00,0.92,-1.40,11.60
590981,-0.05,-0.12,1.01,3.66,-1.10,13.61
590997,-0.03,-0.12,1.01,5.31,-1.59,17.76
591013,-0.04,-0.20,1.00,2.56,-1.16,21.91
591029,-0.03,-0.23,1.01,2.08,-1.34,20.08
591045,-0.01,-0.21,1.01,2.81,-1.65,17.33
591061,-0.00,-0.24,1.00,3.11,-2.01,11.35
591077,0.01,-0.31,1.01,2.32,-1.65,7.14
591093,0.00,-0.35,1.01,1.40,-1.71,6.47
591109,0.01,-0.43,1.01,0.00,-1.83,9.77
591125,-0.00,-0.49,1.01,-1.10,-1.77,10.07
591141,-0.01,-0.47,1.01,-0.24,-1.89,5.37
591157,-0.00,0.01,1.01,2.50,-1.77,1.40
591173,-0.04,-0.07,1.00,3.91,-1.40,2.87
591189,-0.07,-0.12,1.01,3.48,-1.40,5.80
591205,-0.03,-0.16,1.01,3.54,-1.34,15.20
591221,-0.01,-0.21,1.01,2.56,-1.10,22.83
591237,0.01,-0.25,1.01,1.71,-1.10,25.70
591253,0.04,-0.29,1.01,1.04,-1.28,26.49
591269,0.02,-0.32,1.01,0.12,-1.65,19.53
591285,0.00,-0.32,1.01,-0.92,-2.08,14.40
591301,0.00,-0.31,1.00,0.49,-1.89,2.50
591317,-0.02,-0.26,1.01,1.83,-1.89,-8.79
591333,-0.04,-0.23,1.01,0.18,-2.08,-13.61
591349,-0.06,-0.17,1.00,-1.59,-2.81,-20.75
591365,-0.05,-0.12,1.00,-0.85,-2.32,-24.90
591381,-0.05,-0.08,1.01,-1.53,-2.20,-24.60
591397,-0.03,-0.06,1.00,1.04,-2.75,-18.01
591413,-0.03,-0.05,1.00,0.24,-2.69,-13.49
591429,-0.04,-0.04,1.00,-1.77,-2.01,-13.55
591445,-0.04,0.01,1.01,0.24,-1.59,-16.24
591461,-0.01,0.00,1.01,-2.44,-2.56,-15.20
591477,0.01,0.00,1.00,-3.17,-2.44,-12.02
591493,0.02,-0.02,0.91,-3.23,-2.14,-1.34
591509,0.02,0.09,1.03,9.16,-1.10,8.61
591525,0.03,0.11,1.01,1.10,-0.85,10.38
591541,-0.03,0.11,1.01,-9.77,-2.32,13.49
591557,-0.06,0.15,1.01,-11.84,-2.69,7.14
591573,-0.04,0.11,1.00,-20.75,-1.95,1.83
591589,0.06,0.12,0.99,-14.34,-1.77,-10.68
591605,-0.01,0.06,0.93,9.34,-2.14,-21.55
591621,0.01,0.13,0.99,18.98,-2.32,-25.63
591637,0.04,0.19,1.01,19.59,-1.40,-33.63
591653,0.02,0.24,1.01,9.16,-1.89,-35.28
591669,0.03,0.36,1.01,5.92,-1.83,-34.79
591685,0.06,0.43,0.98,4.52,-2.20,-33.02
591701,0.06,0.46,0.99,16.97,-2.26,-29.42
591717,0.08,0.45,1.01,14.53,-2.08,-24.11
591733,0.00,0.07,1.03,-6.23,-1.89,-3.85
591749,-0.01,0.05,1.00,-14.59,-1.89,-1.28
591765,-0.02,0.09,1.01,-11.78,-2.32,-11.54
591781,0.01,0.16,0.99,-19.59,-2.14,-26.49
591797,0.05,0.17,0.96,-14.16,-2.38,-32.78
591813,0.08,0.27,0.99,20.26,-1.65,-34.18
591829,0.06,0.31,1.02,23.99,-1.34,-27.83
591845,0.04,0.29,1.01,18.43,-1.34,-21.18
591861,0.01,0.28,1.01,7.32,-1.34,-2.93
591877,0.04,0.24,1.00,-0.79,-2.20,14.40
591893,0.04,0.24,1.01,-3.48,-2.50,22.40
591909,0.03,0.19,0.99,-9.70,-2.38,31.68
591925,0.01,0.16,0.98,3.66,-1.65,34.85
591941,-0.00,0.17,1.00,12.63,-1.16,35.22
591957,-0.01,0.10,1.01,8.97,-1.04,32.96
591973,-0.02,0.02,1.00,0.79,-1.28,31.62
591989,-0.02,-0.01,1.00,0.37,-1.46,29.85
592005,-0.01,-0.03,1.00,0.31,-1.89,21.12
592021,-0.00,-0.00,1.01,2.69,-2.38,10.99
592037,-0.01,0.02,1.00,2.56,-2.14,7.26
592053,-0.03,0.07,1.01,2.87,-1.16,2.56
592069,-0.06,0.01,1.01,4.58,-1.53,3.48
592085,-0.05,0.02,1.01,5.31,-1.71,5.68
592101,-0.04,-0.01,1.00,1.71,-1.77,13.12
592117,-0.03,-0.04,1.01,4.03,-1.34,19.17
592133,-0.01,-0.05,1.01,0.43,-1.34,22.58
592149,-0.03,-0.08,1.00,1.10,-1.10,29.36
592165,-0.06,-0.15,1.01,3.17,-1.16,31.74
592181,-0.05,-0.16,1.01,4.64,-1.28,29.85
592197,-0.02,-0.23,1.01,3.11,-1.10,25.27
592213,-0.01,-0.26,1.01,1.89,-1.77,19.47
592229,-0.01,-0.26,1.00,1.04,-2.01,15.63
592245,-0.01,-0.26,1.01,0.43,-2.08,7.63
592261,-0.01,-0.28,1.01,0.92,-1.89,3.54
592277,-0.00,-0.29,1.01,1.46,-1.89,2.87
592293,0.00,-0.34,1.01,0.37,-1.83,0.92
592309,0.04,-0.38,1.01,-0.06,-1.89,-0.79
592325,0.00,-0.03,1.01,1.40,-1.83,-0.37
592341,-0.01,-0.02,1.00,3.66,-1.59,2.56
592357,-0.05,-0.13,1.00,3.23,-1.59,9.09
592373,-0.03,-0.15,1.01,1.71,-1.71,14.10
592389,-0.00,-0.18,1.01,1.71,-1.53,18.80
592405,0.01,-0.25,1.01,2.20,-1.59,17.33
592421,0.02,-0.26,1.01,1.71,-1.53,16.72
592437,0.04,-0.28,1.01,0.79,-1.40,13.37
592453,0.01,-0.29,1.00,1.04,-1.65,6.10
592469,-0.02,-0.28,1.01,0.85,-1.59,1.04
592485,-0.05,-0.22,1.01,-0.67,-1.95,-10.80
592501,-0.05,-0.15,1.00,-0.31,-2.56,-21.73
592517,-0.03,-0.14,1.01,1.65,-2.26,-23.93
592533,-0.01,-0.12,1.01,-0.67,-1.77,-20.14
592549,-0.04,-0.09,1.00,-1.83,-3.30,-6.47
592565,-0.04,-0.08,1.01,-1.83,-2.87,-0.37
592581,-0.07,-0.06,1.01,-8.61,-2.50,2.44
592597,-0.05,-0.08,0.97,-11.47,-2.20,-2.56
592613,-0.03,-0.07,0.99,-4.21,-1.46,-6.59
592629,-0.02,-0.09,1.00,4.03,-1.34,-14.53
592645,-0.02,-0.10,0.97,5.68,-1.89,-18.74
592661,-0.01,-0.10,0.94,7.93,-2.38,-17.33
592677,0.00,-0.04,1.04,9.52,-1.89,-18.49
592693,0.01,-0.01,1.03,-8.54,-1.83,-26.49
592709,-0.04,0.01,0.99,-7.75,-2.44,-31.25
592725,-0.04,0.09,1.02,-2.38,-2.87,-43.76
592741,-0.01,0.09,0.96,2.01,-2.01,-47.97
592757,0.00,0.18,0.98,2.50,-2.50,-46.88
592773,0.03,0.27,0.98,5.07,-2.08,-37.66
592789,0.03,0.31,0.99,6.59,-1.59,-26.43
592805,0.03,0.37,0.99,4.09,-1.22,-21.61
592821,0.03,0.45,1.01,4.27,-1.77,-15.08
592837,0.06,0.45,0.99,1.83,-2.08,-13.24
592853,0.06,0.45,0.98,7.51,-2.14,-7.87
592869,0.01,0.49,1.03,19.59,-2.20,-1.34
592885,0.00,0.03,1.00,5.31,-1.95,1.95
592901,0.01,0.02,1.00,-7.39,-2.32,2.01
592917,0.04,0.11,1.01,-17.70,-2.44,-0.49
592933,0.03,0.13,0.99,-20.87,-2.50,-3.85
592949,0.02,0.20,0.98,-2.44,-1.89,-15.01
592965,0.04,0.26,1.00,15.20,-1.40,-24.96
592981,0.04,0.28,1.01,19.17,-1.34,-24.90
592997,0.02,0.28,1.01,12.08,-1.59,-12.94
593013,0.00,0.22,1.01,2.99,-1.89,8.73
593029,-0.00,0.19,1.01,0.18,-2.20,19.47
593045,0.01,0.12,0.99,-5.00,-2.32,32.84
593061,0.01,0.09,0.99,-2.87,-2.08,33.69
593077,0.01,0.08,0.99,0.79,-1.95,31.43
593093,0.01,0.08,1.00,8.73,-1.46,26.37
593109,0.02,0.07,1.00,6.29,-1.40,22.46
593125,0.02,0.07,1.01,5.80,-1.53,21.97
593141,0.00,0.09,1.00,0.61,-1.77,21.97
593157,-0.01,0.12,1.00,1.22,-1.89,21.18
593173,-0.01,0.11,1.00,1.04,-1.89,20.51
593189,-0.03,0.10,1.01,3.17,-1.59,22.03
593205,-0.06,0.08,1.00,2.69,-1.40,24.54
593221,-0.08,0.04,1.01,3.42,-1.10,25.51
593237,-0.06,0.02,0.98,-4.15,-1.34,27.53
593253,-0.04,0.00,1.00,3.60,-1.59,29.79
593269,-0.03,0.01,1.01,3.91,-1.53,31.98
593285,-0.05,-0.01,1.01,3.36,-1.10,33.14
593301,-0.09,-0.07,1.01,2.56,-1.22,26.67
593317,-0.07,-0.09,1.00,1.83,-1.28,24.66
593333,-0.04,-0.10,1.01,5.00,-0.73,26.00
593349,-0.02,-0.13,1.01,3.78,-1.59,24.96
593365,-0.02,-0.15,1.00,3.11,-1.34,22.03
593381,-0.02,-0.16,1.01,4.21,-1.34,16.85
593397,-0.03,-0.18,1.01,0.37,-1.95,12.27
593413,-0.01,-0.20,1.01,0.85,-2.20,8.85
593429,0.01,-0.23,1.01,2.32,-1.89,2.81
593445,0.02,-0.24,1.01,1.46,-1.89,-0.55
593461,0.02,-0.26,1.01,1.16,-1.89,-1.59
593477,0.02,-0.29,1.01,0.92,-1.77,-0.67
593493,0.04,-0.33,1.01,0.31,-1.83,4.33
593509,0.04,-0.36,1.01,-0.18,-1.83,6.71
593525,0.00,0.00,1.01,2.56,-1.71,3.78
593541,-0.03,-0.07,1.00,3.97,-1.53,3.60
593557,-0.04,-0.11,1.00,4.21,-1.40,9.34
593573,-0.03,-0.16,1.00,1.34,-1.34,25.39
593589,-0.01,-0.23,1.01,-0.49,-1.28,36.93
593605,-0.00,-0.25,1.01,-0.18,-1.16,40.71
593621,0.01,-0.29,1.01,0.37,-0.98,41.75
593637,-0.00,-0.31,1.01,-0.85,-1.46,33.33
593653,-0.01,-0.30,1.01,-0.37,-1.65,25.51
593669,-0.02,-0.27,1.00,0.79,-1.71,6.35
593685,-0.03,-0.24,1.00,3.54,-1.46,-8.91
593701,-0.02,-0.20,1.01,3.36,-1.46,-13.43
593717,-0.01,-0.16,1.01,-1.16,-2.44,-16.91
593733,-0.01,-0.14,1.00,-1.89,-2.87,-14.95
593749,-0.00,-0.12,1.00,-2.14,-2.38,-15.08
593765,-0.01,-0.09,1.00,-1.16,-2.32,-19.65
593781,-0.02,-0.07,1.00,1.53,-2.87,-26.00
593797,-0.03,-0.06,1.01,3.60,-2.81,-26.98
593813,-0.03,-0.03,1.01,-1.22,-1.40,-25.51
593829,-0.03,-0.01,1.01,-3.30,-1.59,-21.85
593845,-0.05,0.02,1.01,-6.53,-2.14,-21.61
593861,-0.01,0.08,1.01,-10.62,-2.50,-24.23
593877,-0.02,0.06,0.92,-0.18,-3.11,-23.80
593893,0.00,0.15,1.03,18.55,-1.71,-28.69
593909,0.02,0.15,1.00,5.55,-2.01,-29.91
593925,0.01,0.15,1.00,3.23,-2.32,-26.31
593941,-0.03,0.10,1.02,1.46,-2.44,-17.21
593957,0.00,0.10,1.00,-18.37,-2.32,-13.31
593973,-0.00,0.12,1.01,-18.19,-2.32,-14.16
593989,-0.03,0.15,0.99,-22.46,-2.08,-20.20
594005,0.00,0.20,1.00,-11.84,-1.46,-22.95
594021,0.01,0.20,0.99,-9.70,-1.16,-25.09
594037,0.02,0.22,1.00,-3.42,-0.98,-27.47
594053,0.04,0.28,1.00,0.67,-0.98,-27.71
594069,0.05,0.32,1.00,2.99,-0.61,-27.28
594085,0.04,0.37,1.00,8.61,-1.10,-22.71
594101,0.02,0.19,1.05,10.93,-1.59,-10.01
594117,-0.01,0.05,1.03,-2.38,-2.14,-3.91
594133,-0.02,0.01,0.98,-13.79,-1.53,-14.83
594149,-0.02,0.10,0.98,5.13,-1.46,-27.71
594165,-0.01,0.15,1.00,14.22,-1.83,-31.74
594181,0.03,0.26,1.00,20.14,-1.65,-36.38
594197,0.05,0.32,1.00,25.27,-1.65,-32.90
594213,0.05,0.33,1.01,26.12,-1.65,-27.77
594229,0.03,0.33,1.01,12.15,-1.95,-12.63
594245,0.01,0.29,0.99,0.37,-2.87,7.57
594261,0.02,0.28,1.00,1.77,-2.56,18.55
594277,0.02,0.26,1.00,-0.31,-1.89,37.11
594293,0.01,0.21,1.00,1.46,-1.83,47.24
594309,0.00,0.19,1.00,3.72,-1.83,50.48
594325,-0.04,0.13,1.00,8.18,-1.46,55.36
594341,-0.04,0.03,1.00,3.85,-0.85,56.58
594357,-0.04,-0.01,1.01,4.88,-1.22,55.73
594373,-0.02,-0.04,0.99,2.75,-0.98,50.90
594389,0.01,0.01,1.02,8.00,-1.10,40.28
594405,0.00,-0.03,1.00,-2.01,-0.98,34.67
594421,-0.03,-0.01,1.01,2.01,-1.77,28.08
594437,-0.04,0.00,1.02,7.69,-1.40,27.53
594453,-0.07,-0.05,1.00,3.30,-1.28,26.92
594469,-0.06,-0.10,1.00,0.18,-1.22,26.31
594485,-0.05,-0.13,1.01,2.93,-0.98,28.63
594501,-0.03,-0.12,1.00,6.16,-1.53,29.66
594517,-0.05,-0.15,1.00,3.11,-1.34,26.49
594533,-0.05,-0.21,1.01,3.30,-1.46,21.30
594549,-0.04,-0.20,1.01,2.99,-1.71,18.25
594565,-0.01,-0.22,1.01,1.10,-2.01,12.45
594581,-0.00,-0.25,1.01,1.53,-1.77,3.17
594597,-0.01,-0.26,1.01,2.26,-1.77,-1.59
594613,0.00,-0.29,1.01,1.59,-1.71,-9.03
594629,-0.01,-0.33,1.01,0.98,-2.08,-14.65
594645,-0.00,-0.35,1.01,0.67,-2.20,-15.81
594661,0.04,-0.23,1.00,0.24,-2.20,-14.77
594677,0.00,-0.01,1.00,0.12,-2.01,1.71
594693,-0.02,-0.06,1.01,1.16,-1.89,2.93
594709,-0.06,-0.14,1.00,0.31,-1.71,10.68
594725,-0.02,-0.16,1.00,1.65,-1.59,17.27
594741,-0.01,-0.18,1.01,1.95,-1.65,18.43
594757,-0.00,-0.23,1.01,2.14,-1.28,19.41
594773,-0.01,-0.25,1.01,1.83,-1.46,17.58
594789,0.02,-0.25,1.01,1.40,-1.65,15.81
594805,0.02,-0.23,1.01,0.79,-1.77,11.54
594821,0.03,-0.23,1.01,0.85,-1.71,6.96
594837,0.01,-0.22,1.01,2.81,-1.71,4.70
594853,-0.02,-0.19,1.01,2.20,-1.34,-1.95
594869,-0.03,-0.18,1.01,-0.18,-2.38,-10.44
594885,-0.03,-0.14,1.00,1.40,-2.81,-13.37
594901,-0.04,-0.10,1.01,-0.73,-2.32,-18.80
594917,-0.03,-0.08,1.00,-0.55,-2.38,-20.51
594933,-0.02,-0.06,1.00,3.11,-2.62,-20.14
594949,-0.03,-0.04,1.00,2.87,-2.50,-17.82
594965,-0.03,-0.03,1.00,0.00,-2.62,-16.42
594981,-0.01,-0.02,1.01,-0.49,-1.89,-13.98
594997,-0.01,-0.01,1.00,0.61,-2.26,-12.08
595013,-0.02,-0.01,1.00,-0.37,-2.32,-11.41
595029,-0.01,0.05,0.99,0.00,-2.38,-10.62
595045,-0.01,0.02,1.00,4.64,-1.65,-9.52
595061,0.02,0.06,1.01,2.26,-2.08,-9.83
595077,0.01,0.04,1.00,2.08,-2.08,-10.93
595093,-0.07,-0.00,1.00,3.85,-2.38,-15.32
595109,-0.07,0.05,1.01,2.50,-2.56,-18.19
595125,-0.06,0.02,1.01,-6.16,-2.14,-22.64
595141,-0.02,0.08,0.98,-12.02,-2.38,-26.06
595157,-0.01,0.11,0.97,-2.01,-2.38,-21.79
595173,0.05,0.14,1.00,8.42,-1.65,-15.81
595189,0.02,0.18,1.01,5.19,-1.28,-12.76
595205,0.04,0.19,1.01,0.24,-1.59,-13.12
595221,0.04,0.25,1.00,-4.33,-1.71,-16.85
595237,0.05,0.34,0.98,2.14,-2.08,-24.60
595253,0.07,0.38,0.98,8.24,-2.56,-28.32
595269,0.06,0.45,1.01,17.76,-2.87,-28.08
595285,0.01,0.45,0.99,2.56,-2.26,-15.44
595301,0.00,0.13,1.02,1.65,-2.38,-4.76
595317,-0.00,0.05,1.02,-10.93,-2.26,1.34
595333,-0.01,0.07,1.01,-16.24,-2.08,-8.18
595349,0.01,0.09,0.99,-15.01,-2.01,-15.50
595365,0.04,0.22,0.97,6.29,-1.83,-29.97
595381,0.06,0.29,1.00,22.58,-1.89,-37.84
595397,0.05,0.32,1.03,23.44,-1.89,-36.07
595413,0.01,0.29,1.00,5.00,-1.65,-22.22
595429,0.01,0.26,1.00,1.53,-1.83,1.16
595445,0.01,0.24,1.00,0.00,-1.53,13.37
595461,0.02,0.21,1.00,-0.31,-1.40,30.64
595477,0.02,0.17,1.00,2.20,-1.95,34.00
595493,0.01,0.16,1.00,2.20,-2.01,32.84
595509,-0.00,0.12,0.99,-3.17,-2.20,28.63
595525,-0.02,0.11,1.00,1.16,-1.28,25.88
595541,-0.04,0.12,1.00,2.93,-1.22,24.05
595557,-0.04,0.13,1.00,4.27,-1.77,20.20
595573,-0.03,0.14,1.00,1.46,-1.46,16.48
595589,-0.01,0.13,1.00,1.83,-1.40,14.77
595605,-0.01,0.10,1.01,2.14,-1.59,15.50
595621,-0.05,0.04,1.00,1.40,-1.89,16.17
595637,-0.09,0.00,0.99,2.56,-1.71,15.44
595653,-0.06,0.01,1.01,-2.50,-1.59,12.15
595669,-0.02,-0.01,1.00,0.49,-1.95,10.86
595685,0.00,0.01,1.02,5.13,-1.65,13.67
595701,0.00,-0.00,1.00,1.59,-1.95,19.59
595717,-0.04,-0.14,1.01,0.12,-1.16,22.83
595733,-0.03,-0.19,1.00,1.65,-1.10,24.29
595749,-0.01,-0.24,1.01,6.84,-1.16,25.88
595765,0.01,-0.32,1.01,-1.10,-1.53,20.32
595781,0.01,-0.31,1.02,1.28,-1.65,11.78
595797,-0.02,-0.29,1.01,-0.92,-2.75,-5.98
595813,-0.04,-0.29,1.01,-0.12,-2.44,-9.22
595829,-0.04,-0.30,1.01,-0.92,-2.56,-8.54
595845,-0.00,-0.27,1.01,0.49,-2.14,-7.81
595861,0.02,-0.26,1.01,1.04,-1.89,-7.45
595877,0.04,-0.27,1.01,1.04,-1.95,-7.93
595893,0.05,-0.26,1.01,2.08,-1.83,-9.64
595909,0.06,-0.23,1.01,2.01,-1.83,-5.25
595925,0.00,-0.02,1.00,3.17,-1.83,1.77
595941,-0.00,-0.09,1.00,1.83,-1.71,12.57
595957,0.01,-0.09,1.00,2.50,-1.53,27.40
595973,0.02,-0.11,1.01,2.38,-1.34,34.06
595989,0.02,-0.17,1.01,0.24,-1.16,43.27
596005,0.02,-0.20,1.01,-0.18,-1.04,45.10
596021,0.03,-0.25,1.01,1.59,-0.85,43.82
596037,0.02,-0.28,1.00,0.79,-1.22,34.00
596053,0.01,-0.28,1.00,0.67,-1.46,26.98
596069,-0.00,-0.26,1.00,2.69,-1.89,10.80
596085,-0.02,-0.21,1.01,5.07,-1.53,-3.66
596101,-0.02,-0.18,1.01,4.94,-1.65,-8.97
596117,-0.01,-0.15,1.01,2.38,-1.89,-14.53
596133,0.00,-0.14,1.01,1.65,-2.26,-11.11
596149,0.01,-0.15,1.01,0.18,-2.26,-8.73
596165,-0.03,-0.15,1.00,-1.04,-2.26,-4.52
596181,-0.02,-0.13,0.99,-0.85,-2.50,-6.23
596197,-0.02,-0.11,1.00,1.89,-2.50,-8.42
596213,-0.01,-0.08,1.00,-0.37,-2.26,-15.01
596229,-0.03,-0.05,1.01,2.69,-1.83,-18.01
596245,-0.05,-0.05,1.00,3.54,-1.95,-17.94
596261,-0.01,0.06,0.98,2.20,-2.32,-13.92
596277,-0.01,0.02,1.00,4.52,-1.95,-4.70
596293,0.00,0.06,1.02,2.08,-1.77,-1.16
596309,-0.01,0.08,1.00,2.38,-1.77,3.91
596325,-0.06,0.13,0.99,0.73,-2.44,2.56
596341,-0.07,0.09,0.98,-4.33,-2.50,2.32
596357,-0.03,0.13,1.02,-8.61,-2.69,-3.30
596373,0.00,0.11,0.98,-11.47,-2.08,-11.96
596389,0.00,0.10,0.95,-1.59,-1.71,-16.17
596405,0.00,0.15,1.00,20.26,-1.34,-25.15
596421,0.00,0.21,1.02,11.41,-1.83,-32.04
596437,0.01,0.23,1.01,3.05,-2.50,-31.31
596453,0.01,0.29,1.00,1.46,-2.56,-24.48
596469,-0.01,0.36,1.00,1.71,-2.69,-21.73
596485,0.01,0.40,0.99,1.16,-2.69,-22.16
596501,0.04,0.41,0.99,3.85,-2.56,-21.24
596517,0.07,0.38,1.00,2.62,-2.01,-12.70
596533,0.08,0.25,1.00,0.67,-1.95,-8.18
596549,-0.06,0.11,0.99,-5.25,-1.95,-7.57
596565,-0.01,0.14,1.00,2.75,-2.32,-25.70
596581,-0.01,0.18,1.00,4.52,-2.38,-32.78
596597,-0.00,0.25,1.00,4.15,-2.32,-41.44
596613,0.01,0.27,1.00,1.83,-2.50,-43.76
596629,0.02,0.29,1.00,1.95,-2.38,-41.20
596645,0.03,0.31,1.00,2.81,-2.14,-27.16
596661,0.02,0.32,1.00,1.28,-1.59,-2.93
596677,0.04,0.30,1.00,-0.67,-1.34,8.30
596693,0.02,0.26,1.01,0.06,-1.77,24.41
596709,-0.01,0.22,0.99,-2.26,-2.62,25.51
596725,0.01,0.19,0.99,-1.59,-2.56,23.62
596741,-0.00,0.16,1.00,5.74,-1.46,23.19
596757,-0.01,0.12,1.01,4.88,-1.34,24.05
596773,-0.00,0.11,1.00,5.07,-2.08,24.23
596789,0.01,0.07,1.00,-1.28,-2.26,23.68
596805,-0.01,0.04,1.01,-0.49,-1.22,21.85
596821,-0.02,0.03,1.01,1.83,-1.34,19.17
596837,-0.03,-0.01,1.00,4.70,-1.77,12.21
596853,0.02,0.03,1.01,7.51,-2.50,6.16
596869,-0.00,-0.08,1.02,-3.97,-2.01,5.55
596885,-0.03,-0.08,1.01,4.94,-1.28,9.70
596901,-0.01,-0.05,1.00,2.14,-1.89,16.48
596917,-0.03,-0.08,1.00,0.37,-1.71,19.17
596933,-0.01,-0.14,1.01,2.01,-0.98,21.91
596949,-0.00,-0.17,1.00,2.62,-0.85,18.80
596965,-0.06,-0.17,1.01,3.91,-1.59,16.66
596981,-0.04,-0.23,1.01,-1.10,-1.34,14.22
596997,-0.02,-0.20,1.01,0.37,-1.89,14.59
597013,0.00,-0.20,1.01,0.31,-2.01,16.85
597029,0.01,-0.20,1.01,1.71,-2.20,18.86
597045,0.01,-0.23,1.00,1.59,-1.89,17.82
597061,0.03,-0.28,1.01,1.71,-1.53,15.50
597077,0.03,-0.31,1.01,1.28,-1.40,16.42
597093,0.04,-0.33,1.01,0.67,-1.65,16.72
597109,0.04,-0.38,1.01,-0.37,-1.65,15.44
597125,-0.00,-0.02,1.01,2.38,-1.71,5.92
597141,-0.05,-0.07,1.01,5.07,-1.65,3.91
597157,-0.03,-0.11,1.00,1.53,-1.59,18.68
597173,-0.01,-0.14,1.01,1.59,-1.34,29.66
597189,0.00,-0.17,1.01,1.65,-1.22,34.18
597205,0.02,-0.23,1.01,1.59,-0.92,42.05
597221,0.03,-0.26,1.01,0.73,-0.85,46.39
597237,0.03,-0.29,1.01,0.24,-0.92,45.47
597253,0.03,-0.31,1.01,0.55,-1.34,37.11
597269,-0.00,-0.31,1.01,-1.77,-1.65,23.56
597285,-0.03,-0.30,1.00,-1.65,-1.71,15.50
597301,-0.02,-0.25,1.01,2.44,-1.40,-2.62
597317,-0.00,-0.20,1.01,4.09,-2.50,-16.78
597333,0.01,-0.19,1.00,3.72,-2.93,-20.63
597349,-0.00,-0.18,1.01,1.16,-2.38,-25.57
597365,-0.02,-0.17,1.01,1.95,-2.56,-25.21
597381,-0.04,-0.15,1.00,1.77,-2.75,-24.17
597397,-0.04,-0.09,1.01,-1.10,-3.05,-21.18
597413,-0.03,-0.02,0.99,-2.14,-1.83,-15.32
597429,-0.05,0.01,1.01,3.78,-1.95,-13.43
597445,-0.03,0.13,0.97,-2.62,-2.20,-15.69
597461,-0.06,0.05,1.01,9.28,-1.89,-13.43
597477,-0.04,0.10,1.03,3.54,-1.83,-12.27
597493,-0.06,0.07,1.00,6.59,-1.89,-2.93
597509,-0.04,0.04,0.97,-0.55,-1.95,1.28
597525,-0.02,0.11,1.02,5.86,-1.40,2.32
597541,0.02,0.17,1.00,-1.77,-1.89,3.97
597557,-0.00,0.17,0.97,1.34,-2.01,2.50
597573,-0.01,0.19,1.01,10.01,-2.26,0.43
597589,-0.01,0.16,1.00,1.71,-1.53,-8.73
597605,-0.01,0.18,1.01,2.93,-1.65,-15.56
597621,0.01,0.18,1.00,2.93,-1.65,-18.68
597637,0.02,0.21,1.00,2.56,-2.62,-23.99
597653,0.04,0.27,1.00,1.71,-3.17,-29.48
597669,0.06,0.30,0.99,-0.31,-3.05,-32.47
597685,0.06,0.42,0.99,1.89,-2.99,-36.68
597701,0.09,0.47,0.99,2.38,-2.56,-39.73
597717,0.10,0.43,1.00,3.72,-2.32,-37.29
597733,0.02,0.17,1.00,-0.06,-2.20,-21.97
597749,0.02,0.10,1.01,1.04,-2.75,-33.87
597765,0.03,0.14,1.00,0.43,-2.69,-36.99
597781,0.04,0.24,1.00,-1.34,-2.81,-37.41
597797,0.06,0.32,1.00,1.59,-2.75,-34.00
597813,0.05,0.35,1.00,2.62,-2.38,-30.15
597829,0.02,0.33,0.99,1.59,-2.08,-21.06
597845,-0.02,0.28,1.00,2.75,-1.89,-6.41
597861,-0.02,0.25,1.00,2.99,-1.59,3.05
597877,0.01,0.17,1.00,0.92,-0.73,20.75
597893,0.01,0.14,1.00,2.50,-1.40,27.59
597909,0.01,0.15,1.00,4.39,-1.77,26.67
597925,-0.04,0.17,1.00,4.64,-2.08,22.40
597941,-0.04,0.16,0.98,2.20,-1.65,22.03
597957,-0.01,0.16,1.00,6.04,-0.92,22.52
597973,-0.01,0.12,1.00,2.62,-1.71,24.48
597989,-0.01,0.12,1.00,-0.12,-2.32,28.26
598005,-0.03,0.11,1.00,-2.20,-1.83,30.27
598021,-0.07,0.09,1.01,0.43,-0.98,34.00
598037,-0.06,0.04,1.00,4.39,-1.04,37.11
598053,-0.03,-0.01,1.00,5.19,-0.85,38.27
598069,-0.02,-0.01,1.02,0.73,-1.10,37.96
598085,-0.05,-0.07,1.01,-6.47,-1.59,37.78
598101,-0.07,-0.06,1.01,4.21,-0.98,38.02
598117,-0.05,-0.09,1.00,3.85,-1.22,38.02
598133,-0.05,-0.14,1.00,1.28,-0.79,36.07
598149,-0.02,-0.19,1.01,1.83,-0.85,30.03
598165,-0.00,-0.16,1.00,1.28,-1.22,27.47
598181,-0.03,-0.18,1.01,-0.92,-1.22,27.10
598197,-0.04,-0.23,1.01,-1.40,-1.71,24.11
598213,-0.03,-0.24,1.01,-0.37,-2.01,22.28
598229,-0.02,-0.26,1.00,-0.24,-1.89,23.38
598245,-0.00,-0.29,1.01,0.85,-1.59,21.18
598261,0.01,-0.33,1.01,0.55,-1.83,16.91
598277,0.01,-0.35,1.01,0.12,-1.77,15.44
598293,0.02,-0.39,1.01,0.31,-1.89,14.34
598309,0.07,-0.40,1.01,-0.55,-1.83,11.17
598325,-0.00,-0.02,1.01,2.93,-1.59,5.00
598341,-0.05,-0.13,1.00,3.85,-1.34,8.97
598357,-0.01,-0.16,1.01,1.40,-1.53,18.37
598373,-0.00,-0.18,1.00,0.73,-1.46,21.30
598389,0.00,-0.21,1.01,2.01,-1.22,23.32
598405,0.01,-0.26,1.01,2.62,-1.10,20.87
598421,0.00,-0.27,1.01,2.69,-1.22,19.23
598437,-0.01,-0.29,1.00,0.24,-1.65,13.73
598453,-0.00,-0.27,1.01,-0.61,-2.32,5.31
598469,0.00,-0.24,1.00,0.49,-2.14,1.71
598485,-0.00,-0.16,1.01,2.75,-1.77,-6.23
598501,-0.03,-0.10,1.00,3.48,-2.38,-12.39
598517,-0.03,-0.10,1.00,3.97,-2.50,-14.16
598533,-0.02,-0.10,1.00,2.56,-2.56,-15.32
598549,-0.02,-0.10,1.00,1.71,-2.38,-14.22
598565,-0.01,-0.09,1.00,0.92,-2.44,-13.79
598581,-0.01,-0.08,1.00,0.12,-2.50,-13.85
598597,-0.01,-0.05,1.01,-1.04,-2.69,-18.01
598613,0.02,-0.04,1.00,-1.16,-2.32,-19.78
598629,0.02,-0.03,1.00,2.87,-1.89,-23.68
598645,0.04,0.00,1.00,-1.46,-2.62,-23.50
598661,0.05,0.08,0.99,-1.04,-2.75,-22.16
598677,0.01,0.15,1.01,6.35,-1.95,-17.88
598693,0.02,0.24,1.00,3.85,-1.89,-13.00
598709,0.01,0.25,1.00,5.00,-2.08,-8.73
598725,-0.02,0.23,0.99,3.78,-1.83,-0.43
598741,-0.02,0.17,1.01,-1.71,-1.71,6.77
598757,0.01,0.13,0.99,-4.39,-1.77,9.09
598773,0.01,0.11,1.01,-3.97,-1.95,4.58
598789,0.01,0.15,1.00,-3.17,-2.62,0.31
598805,0.03,0.16,0.99,-2.75,-2.38,-3.91
598821,0.02,0.18,1.00,6.65,-2.08,-11.29
598837,0.03,0.18,1.00,7.45,-2.01,-11.41
598853,0.02,0.19,1.00,7.20,-1.83,-9.40
598869,-0.00,0.21,1.00,3.23,-2.01,-7.08
598885,-0.01,0.25,1.00,2.32,-2.01,-9.77
598901,-0.02,0.29,1.00,1.65,-2.26,-13.31
598917,0.01,0.15,1.01,-0.98,-2.26,-17.94
598933,-0.02,0.15,1.00,-3.05,-2.08,-13.79
598949,-0.03,0.10,1.00,0.67,-2.20,-22.52
598965,0.00,0.10,1.01,6.77,-2.44,-45.47
598981,0.00,0.11,1.00,3.05,-2.75,-56.09
598997,-0.00,0.15,1.00,2.44,-2.93,-55.97
599013,-0.03,0.24,1.00,0.12,-2.99,-48.65
599029,-0.02,0.27,1.00,-2.69,-3.11,-36.80
599045,0.04,0.30,1.00,-2.75,-2.99,-31.13
599061,0.06,0.31,0.99,0.92,-2.38,-20.26
599077,0.07,0.31,0.99,5.07,-2.01,-8.67
599093,0.05,0.29,1.00,5.55,-1.65,-1.71
599109,0.05,0.22,1.00,2.32,-1.53,13.06
599125,0.05,0.20,1.00,0.92,-2.08,26.61
599141,0.05,0.15,1.00,-0.67,-2.26,31.31
599157,-0.01,0.12,1.00,-1.95,-1.16,35.10
599173,-0.04,0.10,1.00,0.43,-1.22,33.81
599189,-0.05,0.06,1.01,2.20,-1.22,31.25
599205,-0.03,0.03,1.00,4.46,-1.10,27.77
599221,-0.05,-0.06,1.01,5.92,-1.40,25.21
599237,-0.00,-0.03,1.02,-1.04,-1.71,18.98
599253,-0.01,-0.04,1.01,1.53,-1.53,15.56
599269,-0.00,-0.02,1.00,3.30,-1.46,15.14
599285,-0.04,-0.04,1.00,1.65,-1.53,17.33
599301,-0.09,-0.10,1.00,1.40,-1.28,17.09
599317,-0.07,-0.10,1.00,3.36,-1.16,17.88
599333,-0.06,-0.11,1.02,5.62,-1.16,20.02
599349,-0.02,-0.14,1.01,1.16,-1.65,25.63
599365,-0.03,-0.14,1.01,2.32,-1.40,28.26
599381,-0.07,-0.22,1.00,-0.49,-1.77,29.91
599397,-0.04,-0.29,1.01,1.89,-1.59,30.70
599413,-0.02,-0.34,1.01,1.16,-1.34,29.17
599429,0.03,-0.43,1.01,0.00,-1.53,22.64
599445,0.03,-0.42,1.01,0.73,-1.83,11.47
599461,0.05,-0.43,1.01,-1.83,-1.77,5.49
599477,0.05,-0.04,1.01,0.37,-1.89,-0.92
599493,-0.09,-0.11,1.00,0.31,-1.71,4.33
599509,-0.05,-0.11,1.00,2.81,-1.65,7.69
599525,-0.01,-0.15,1.01,3.91,-1.28,14.34
599541,0.02,-0.20,1.00,2.14,-1.16,25.02
599557,0.02,-0.24,1.01,1.40,-0.98,29.48
599573,0.04,-0.29,1.01,1.22,-1.16,32.35
599589,0.03,-0.32,1.01,0.43,-1.28,26.37
599605,0.03,-0.33,1.00,0.00,-1.28,21.36
599621,0.01,-0.33,1.01,0.79,-1.34,10.31
599637,-0.04,-0.25,1.02,0.73,-1.83,-3.48
599653,-0.04,-0.20,1.00,-0.43,-2.20,-10.25
599669,-0.01,-0.11,1.01,2.38,-2.62,-18.74
599685,0.01,-0.08,1.01,-2.20,-2.56,-18.80
599701,0.02,-0.07,1.00,0.98,-2.44,-15.56
599717,0.02,-0.10,1.00,3.23,-2.08,-8.97
599733,0.00,-0.09,1.01,0.18,-2.14,-3.36
599749,0.01,-0.07,1.00,-2.44,-1.89,-1.71
599765,-0.02,-0.01,1.01,4.39,-1.65,0.31
599781,-0.04,0.01,1.00,-2.01,-2.50,-3.42
599797,-0.01,0.07,0.99,-0.73,-2.81,-5.92
599813,-0.04,0.01,1.02,6.96,-1.89,-9.58
599829,-0.02,0.00,1.00,2.38,-2.01,-14.89
599845,-0.03,-0.01,1.00,4.03,-2.08,-17.88
599861,-0.03,-0.01,0.99,3.17,-2.75,-25.88
599877,-0.01,0.04,1.02,2.69,-2.99,-33.57
599893,-0.01,0.07,1.01,-4.15,-3.42,-38.64
599909,-0.02,0.12,0.97,-0.37,-2.62,-41.26
599925,-0.00,0.27,1.04,19.17,-1.28,-40.34
599941,0.01,0.28,1.01,4.76,-2.26,-39.18
599957,-0.01,0.35,1.00,3.05,-2.99,-27.53
599973,0.01,0.39,1.00,-0.31,-2.69,-23.56
599989,0.02,0.42,0.99,1.16,-2.69,-23.25
600005,0.02,0.46,0.99,5.25,-2.69,-21.12