time,accel_x,accel_y,accel_z,gyro_x,gyro_y,gyro_z
550022,0.04,0.35,1.02,-2.50,-2.14,-8.48
550037,0.04,0.33,1.00,-3.30,-1.89,0.06
550053,0.04,0.32,1.00,-2.56,-1.95,4.33
550069,0.02,0.33,1.00,-3.30,-2.01,10.07
550085,0.01,0.00,1.00,-7.51,-2.20,4.94
550101,-0.01,0.06,1.00,-6.65,-1.95,-0.85
550117,0.02,0.12,0.99,0.37,-2.20,-22.95
550133,0.05,0.16,0.99,5.74,-2.20,-35.95
550149,0.05,0.18,1.00,9.52,-1.95,-37.35
550165,0.03,0.23,1.01,13.12,-1.77,-31.74
550181,-0.01,0.21,1.00,6.04,-1.53,-23.74
550197,-0.01,0.21,1.00,6.59,-1.53,-18.13
550213,0.02,0.20,1.00,7.75,-1.59,-4.52
550229,0.05,0.19,1.00,3.66,-1.34,9.16
550245,0.04,0.18,1.00,2.08,-0.98,15.32
550261,0.01,0.15,1.00,-1.40,-1.65,24.60
550277,0.00,0.13,1.00,0.61,-2.20,28.26
550293,-0.03,0.09,1.00,2.32,-2.69,26.73
550309,-0.01,0.08,1.00,4.03,-2.99,18.98
550325,-0.00,0.07,0.99,9.28,-2.50,12.63
550341,0.01,0.09,1.00,7.75,-1.89,10.25
550357,-0.02,0.10,1.01,3.42,-1.65,7.26
550373,-0.03,0.09,1.00,0.06,-2.62,8.06
550389,-0.05,0.08,1.00,-0.43,-2.56,9.28
550405,-0.04,0.08,1.01,0.98,-1.83,10.56
550421,-0.03,0.07,1.00,0.12,-1.28,8.85
550437,-0.01,0.05,1.01,2.99,-1.95,7.32
550453,-0.04,0.01,1.00,3.30,-1.89,7.02
550469,-0.06,-0.01,1.00,2.81,-1.53,8.12
550485,-0.05,-0.02,1.00,5.86,-1.40,14.47
550501,-0.03,-0.10,1.00,-6.84,-2.08,23.50
550517,-0.03,-0.07,1.00,-0.92,-1.65,27.40
550533,0.00,-0.06,1.01,5.31,-1.22,34.55
550549,0.01,-0.08,1.01,1.83,-1.16,38.82
550565,0.00,-0.11,1.00,-2.01,-1.59,36.99
550581,-0.01,-0.11,1.01,3.42,-1.28,28.50
550597,-0.02,-0.16,1.01,3.78,-0.73,21.18
550613,-0.02,-0.19,1.00,3.54,-0.55,17.46
550629,-0.04,-0.18,1.01,2.93,-1.53,7.20
550645,0.03,-0.20,1.01,0.85,-1.65,2.32
550661,0.05,-0.20,1.01,1.59,-1.59,1.40
550677,0.05,-0.20,1.00,1.77,-1.65,2.62
550693,0.01,-0.25,1.01,-0.73,-1.77,8.36
550709,0.02,-0.26,1.01,-0.55,-1.95,13.12
550725,0.03,-0.33,1.01,-0.79,-1.83,18.49
550741,0.03,-0.35,1.01,0.92,-1.59,10.68
550757,0.00,-0.01,1.02,4.82,-1.40,3.91
550773,0.00,-0.05,1.00,4.33,-1.28,4.21
550789,-0.01,-0.14,1.00,3.85,-1.16,11.41
550805,0.00,-0.18,1.01,2.44,-1.40,16.60
550821,0.03,-0.23,1.01,1.04,-1.34,24.41
550837,0.03,-0.26,1.01,0.24,-1.53,23.68
550853,0.03,-0.26,1.01,0.55,-1.46,19.96
550869,0.01,-0.24,1.01,-0.43,-1.46,10.01
550885,-0.01,-0.22,1.00,-2.14,-2.08,-0.18
550901,-0.01,-0.20,1.01,-2.14,-2.26,-4.52
550917,0.00,-0.18,1.00,-3.48,-2.08,-12.21
550933,-0.01,-0.14,1.00,0.55,-2.14,-18.68
550949,-0.01,-0.11,1.00,1.16,-2.56,-20.32
550965,0.01,-0.08,1.00,0.49,-3.42,-16.66
550981,-0.00,-0.07,1.01,3.48,-2.26,-8.61
550997,-0.01,-0.09,1.01,1.89,-2.01,-5.62
551013,-0.03,-0.11,0.99,-0.73,-2.44,-2.08
551029,-0.04,-0.09,1.01,-1.34,-2.75,-4.52
551045,-0.04,-0.10,1.00,-3.05,-2.32,-7.45
551061,-0.06,-0.08,1.00,0.79,-1.59,-13.98
551077,-0.04,-0.07,0.95,0.06,-2.44,-18.68
551093,-0.01,0.02,1.05,8.30,-3.23,-17.03
551109,0.02,0.03,1.00,5.80,-1.77,-14.53
551125,0.00,0.04,1.01,3.05,-1.83,-9.09
551141,-0.02,0.01,1.01,3.11,-2.50,-7.45
551157,-0.02,-0.03,0.97,-5.68,-1.71,-7.57
551173,-0.04,0.05,1.02,4.76,-1.10,-8.18
551189,-0.05,0.11,1.01,5.92,-1.16,-8.85
551205,-0.03,0.11,1.00,-5.07,-2.38,-13.24
551221,0.00,0.11,0.99,-4.09,-1.89,-18.92
551237,-0.00,0.10,0.99,0.06,-1.16,-21.97
551253,-0.00,0.12,1.01,6.41,-0.67,-28.20
551269,0.03,0.13,1.01,5.55,-0.92,-29.85
551285,0.02,0.13,1.00,3.05,-1.53,-26.67
551301,0.03,0.10,1.00,-2.38,-2.14,-16.30
551317,0.02,0.13,0.99,-6.77,-2.50,-7.81
551333,0.00,0.22,1.02,-5.86,-2.93,-6.29
551349,0.02,0.26,1.01,-10.38,-2.38,-9.77
551365,0.02,0.27,0.98,-6.16,-2.32,-16.11
551381,0.01,0.34,0.98,1.89,-2.50,-18.74
551397,-0.01,0.35,0.99,17.88,-2.26,-23.32
551413,0.06,0.24,1.02,13.61,-2.01,-5.55
551429,-0.01,0.07,1.01,-4.03,-1.89,-2.01
551445,-0.02,0.07,1.00,-5.07,-1.95,-17.94
551461,-0.01,0.07,1.01,-4.15,-2.20,-30.15
551477,-0.00,0.18,0.99,-5.98,-1.77,-34.79
551493,0.02,0.27,0.99,5.19,-1.71,-38.33
551509,0.04,0.28,0.99,11.11,-1.53,-35.46
551525,0.05,0.29,1.00,16.11,-1.22,-19.78
551541,0.02,0.28,1.01,11.54,-1.83,1.22
551557,0.01,0.26,1.01,7.69,-1.65,11.29
551573,0.01,0.22,0.99,3.36,-1.34,29.24
551589,0.01,0.17,1.01,4.52,-0.92,39.37
551605,0.02,0.13,1.01,2.81,-0.79,41.32
551621,0.00,0.06,1.01,4.46,-1.46,41.02
551637,-0.03,0.02,1.00,3.11,-2.99,34.73
551653,-0.05,0.02,1.00,1.89,-2.87,31.92
551669,-0.07,0.07,0.99,-1.16,-1.71,27.10
551685,-0.01,0.04,1.01,2.01,-1.46,17.64
551701,0.00,0.04,1.00,2.87,-1.83,12.57
551717,0.01,0.03,1.00,3.11,-2.38,6.41
551733,-0.02,0.02,1.00,-1.53,-1.83,5.74
551749,-0.04,0.01,0.99,-1.89,-1.46,7.87
551765,-0.02,0.01,1.00,0.98,-1.71,15.26
551781,-0.04,-0.00,1.00,1.34,-1.65,19.78
551797,-0.03,-0.02,1.00,0.98,-1.46,20.32
551813,-0.02,-0.00,0.99,3.66,-2.01,18.49
551829,-0.05,-0.10,0.99,-5.43,-1.83,14.53
551845,-0.04,-0.10,1.00,1.28,-1.59,13.12
551861,-0.01,-0.05,1.01,7.81,-1.34,13.49
551877,-0.03,-0.06,1.01,1.65,-1.46,12.76
551893,-0.01,-0.02,1.01,2.99,-1.53,11.60
551909,0.01,-0.04,1.00,-0.61,-2.08,8.54
551925,0.01,-0.05,1.01,3.91,-1.59,8.12
551941,-0.01,-0.08,1.01,1.59,-1.16,8.00
551957,-0.02,-0.07,1.00,2.44,-1.34,9.34
551973,0.00,-0.08,1.00,-1.16,-1.65,16.60
551989,0.02,-0.09,1.00,0.00,-1.71,19.84
552005,0.01,-0.09,1.01,2.87,-1.28,22.89
552021,0.01,-0.11,1.01,1.10,-1.40,21.97
552037,0.02,-0.13,1.01,1.46,-1.71,21.48
552053,0.02,-0.17,1.01,0.24,-1.89,19.23
552069,0.02,-0.23,1.01,0.31,-2.01,12.76
552085,0.02,-0.23,1.01,0.98,-2.01,9.46
552101,0.01,-0.24,1.01,1.95,-1.59,3.30
552117,0.03,-0.27,1.01,1.04,-1.71,0.73
552133,0.03,-0.28,1.01,0.55,-1.71,2.20
552149,0.01,-0.06,0.99,1.40,-1.77,4.64
552165,-0.04,-0.10,1.00,2.87,-1.46,7.57
552181,-0.03,-0.11,1.00,3.30,-1.28,13.24
552197,0.00,-0.15,1.01,2.32,-1.28,23.13
552213,-0.00,-0.18,1.01,-0.12,-1.65,29.24
552229,-0.01,-0.20,1.01,0.12,-1.53,29.60
552245,0.01,-0.23,1.01,2.50,-1.16,27.40
552261,0.04,-0.23,1.01,5.43,-0.49,21.79
552277,0.05,-0.23,1.01,5.31,-0.73,18.49
552293,0.03,-0.22,1.00,0.98,-1.77,14.16
552309,0.00,-0.19,1.01,-0.98,-2.01,8.97
552325,0.01,-0.18,1.01,-1.46,-1.77,6.23
552341,0.01,-0.16,1.01,0.67,-1.95,1.95
552357,0.02,-0.18,1.00,2.62,-1.46,-3.54
552373,0.01,-0.18,1.00,1.65,-1.65,-6.04
552389,-0.00,-0.15,1.01,-1.34,-3.30,-10.86
552405,-0.01,-0.14,1.00,-1.22,-2.87,-15.20
552421,-0.04,-0.11,1.00,0.55,-2.38,-17.82
552437,-0.04,-0.05,1.01,1.95,-3.36,-23.56
552453,-0.03,-0.03,1.01,-2.50,-2.69,-25.02
552469,0.00,-0.01,1.00,-1.95,-1.83,-21.97
552485,-0.00,0.01,1.01,-2.14,-1.71,-17.15
552501,-0.00,0.01,1.04,-1.04,-2.44,-10.93
552517,-0.02,0.02,0.96,6.53,-2.26,-8.24
552533,0.02,0.08,1.02,7.02,-2.01,-4.76
552549,-0.00,0.06,1.00,3.05,-1.71,-3.36
552565,-0.10,0.04,1.03,-0.43,-2.50,-3.11
552581,-0.10,-0.01,0.98,-16.42,-1.40,-11.47
552597,-0.10,0.07,1.02,-11.47,-1.34,-17.33
552613,-0.03,0.07,1.01,-4.09,-0.92,-24.11
552629,0.00,0.06,0.99,1.34,-1.95,-22.46
552645,-0.01,0.07,0.99,1.71,-1.40,-21.91
552661,-0.02,0.10,0.99,3.11,-0.92,-22.64
552677,-0.00,0.17,1.01,6.10,-1.46,-23.32
552693,0.00,0.21,1.02,5.62,-1.46,-23.86
552709,-0.00,0.25,0.99,6.23,-2.08,-23.99
552725,0.04,0.24,0.99,10.86,-2.75,-20.45
552741,0.06,0.28,1.01,13.85,-3.05,-17.09
552757,0.05,0.27,1.01,12.70,-2.69,-10.01
552773,0.04,0.27,1.01,6.16,-2.26,-3.60
552789,0.02,0.27,1.00,2.69,-2.14,0.92
552805,0.02,0.24,1.00,-1.16,-2.14,8.61
552821,0.02,0.18,1.00,-1.65,-1.89,9.89
552837,0.01,0.02,1.00,-2.08,-1.89,5.25
552853,-0.01,0.06,1.01,-7.08,-2.01,-1.59
552869,-0.01,0.12,0.98,-5.13,-2.08,-16.11
552885,0.00,0.16,0.99,4.15,-2.08,-23.80
552901,0.03,0.22,1.00,15.14,-1.95,-28.44
552917,0.04,0.25,1.01,7.45,-1.71,-19.71
552933,0.03,0.25,1.00,2.99,-1.71,-12.33
552949,0.02,0.27,1.00,1.34,-1.65,1.71
552965,0.04,0.25,1.00,0.12,-1.71,11.60
552981,0.05,0.24,1.00,1.10,-1.59,16.11
552997,0.03,0.21,1.00,0.85,-1.46,24.35
553013,-0.01,0.17,1.01,-0.61,-1.77,31.68
553029,-0.02,0.13,1.01,-0.24,-2.08,35.16
553045,-0.03,0.09,1.00,1.65,-2.62,39.18
553061,-0.01,0.06,1.00,2.44,-2.32,39.18
553077,-0.01,0.06,0.99,2.01,-1.46,37.54
553093,-0.00,0.04,1.01,3.11,-1.04,31.25
553109,-0.01,0.04,1.00,0.24,-1.95,25.21
553125,-0.03,0.04,1.00,-0.85,-2.14,23.25
553141,-0.04,0.04,1.00,1.22,-1.53,19.53
553157,-0.04,0.02,1.01,1.04,-0.92,15.69
553173,-0.04,0.02,1.01,3.17,-1.40,14.22
553189,-0.01,-0.01,1.00,2.01,-1.89,14.59
553205,-0.01,-0.07,0.99,2.99,-1.22,19.35
553221,0.02,-0.00,1.01,5.31,-1.40,20.87
553237,-0.04,-0.07,1.00,-1.34,-1.83,19.47
553253,-0.05,-0.05,1.01,1.16,-1.71,12.82
553269,-0.04,-0.04,0.99,2.44,-1.65,10.93
553285,-0.02,-0.08,1.01,3.11,-1.83,8.00
553301,-0.04,-0.12,1.00,2.50,-1.65,6.16
553317,-0.02,-0.13,1.00,3.05,-1.71,7.69
553333,0.01,-0.18,1.01,0.67,-1.53,6.77
553349,-0.00,-0.10,1.00,3.72,-1.34,-0.55
553365,-0.01,-0.10,1.01,2.14,-1.40,-5.19
553381,-0.01,-0.11,1.01,2.32,-1.65,-15.14
553397,-0.01,-0.12,1.00,1.04,-2.26,-17.21
553413,0.00,-0.13,1.00,0.98,-2.14,-14.89
553429,0.03,-0.16,1.01,2.69,-1.83,-8.18
553445,0.05,-0.18,1.01,3.05,-1.53,-3.23
553461,0.05,-0.24,1.00,2.38,-1.59,-1.65
553477,0.03,-0.27,1.01,1.10,-1.89,0.37
553493,0.02,-0.27,1.01,-0.43,-2.20,2.62
553509,0.03,-0.27,1.01,-0.79,-2.14,3.72
553525,-0.00,-0.04,1.01,3.48,-1.71,2.81
553541,-0.03,-0.07,1.01,4.88,-1.10,12.27
553557,-0.00,-0.11,1.00,4.09,-1.10,19.35
553573,0.02,-0.16,1.00,2.01,-1.04,32.65
553589,0.03,-0.19,1.01,1.04,-1.28,41.75
553605,0.04,-0.25,1.01,0.49,-1.04,44.19
553621,0.03,-0.27,1.01,0.92,-0.79,41.99
553637,0.03,-0.28,1.01,-0.49,-1.10,37.60
553653,0.01,-0.24,1.01,-0.37,-1.46,24.29
553669,-0.02,-0.18,1.00,0.00,-2.26,5.49
553685,-0.02,-0.17,1.00,1.59,-2.26,-3.72
553701,0.00,-0.16,1.01,3.78,-2.81,-14.59
553717,0.01,-0.16,1.01,0.85,-2.75,-14.10
553733,0.01,-0.17,1.00,-0.49,-2.50,-12.15
553749,-0.04,-0.14,1.00,0.12,-2.38,-8.85
553765,-0.05,-0.07,1.00,-2.20,-2.56,-6.96
553781,-0.03,-0.03,1.00,-2.26,-2.50,-6.16
553797,0.00,-0.01,1.01,9.22,-1.34,-2.01
553813,-0.01,-0.04,1.01,4.52,-1.40,4.33
553829,-0.02,-0.06,1.00,-0.85,-1.71,6.90
553845,-0.04,-0.06,0.97,-0.61,-2.01,10.31
553861,-0.02,0.01,1.00,5.13,-1.28,11.11
553877,0.00,0.03,1.00,3.23,-1.40,11.96
553893,0.01,0.05,1.00,5.00,-1.89,11.35
553909,-0.02,0.08,0.99,2.14,-2.01,2.56
553925,-0.04,0.03,1.00,-4.76,-2.26,-1.04
553941,-0.05,0.10,1.01,-0.73,-1.89,-10.19
553957,-0.06,0.10,0.99,-4.09,-3.30,-16.54
553973,-0.04,0.10,0.98,0.00,-2.93,-19.65
553989,-0.00,0.14,1.00,8.24,-1.65,-28.87
554005,0.01,0.13,1.01,1.53,-1.83,-33.45
554021,0.02,0.14,1.01,0.67,-2.08,-31.86
554037,0.02,0.18,1.00,1.83,-2.20,-29.42
554053,0.02,0.20,1.00,0.73,-2.87,-29.11
554069,0.03,0.21,1.00,0.31,-3.05,-28.38
554085,0.04,0.24,0.99,2.14,-2.81,-24.78
554101,0.04,0.27,1.00,3.48,-2.44,-20.87
554117,0.03,0.25,1.00,-0.12,-2.32,-17.15
554133,0.02,0.25,1.00,-0.24,-2.20,-6.84
554149,0.03,0.27,1.00,0.49,-1.95,-0.55
554165,0.04,0.27,1.00,1.34,-1.95,0.49
554181,0.01,0.01,1.00,0.49,-2.01,1.53
554197,0.00,0.04,1.00,-2.87,-2.14,0.49
554213,-0.01,0.06,1.01,-4.88,-2.20,-2.99
554229,-0.01,0.04,1.00,-7.26,-2.26,-16.91
554245,-0.00,0.06,0.99,6.23,-1.95,-30.15
554261,-0.00,0.10,1.00,10.68,-1.95,-34.42
554277,-0.01,0.17,1.00,8.18,-2.08,-37.78
554293,0.00,0.17,1.00,2.87,-2.14,-31.37
554309,0.03,0.18,1.00,2.08,-2.01,-24.66
554325,0.04,0.20,1.00,-0.92,-2.01,-11.11
554341,0.05,0.22,1.00,0.61,-1.71,-1.59
554357,0.04,0.21,1.00,-0.06,-1.89,1.40
554373,0.04,0.19,1.00,2.75,-2.01,5.80
554389,0.02,0.18,0.99,0.24,-1.53,11.78
554405,0.02,0.17,1.00,-0.12,-1.53,15.69
554421,0.04,0.14,1.01,-0.24,-1.40,25.82
554437,0.01,0.10,1.00,0.06,-2.50,33.20
554453,-0.01,0.08,1.01,0.61,-2.81,34.30
554469,-0.04,0.06,1.00,0.79,-2.08,31.37
554485,-0.04,0.05,1.00,0.24,-1.22,24.29
554501,-0.03,0.05,1.00,3.11,-1.28,20.39
554517,-0.01,0.03,1.01,6.10,-1.65,12.33
554533,-0.01,0.02,1.00,4.39,-2.01,4.03
554549,-0.01,0.02,1.01,3.72,-2.26,1.10
554565,-0.01,0.01,1.00,-2.62,-1.89,1.46
554581,-0.03,0.01,1.01,0.67,-2.01,3.42
554597,-0.03,0.01,1.00,1.16,-1.83,3.60
554613,-0.03,-0.00,1.00,3.60,-1.53,4.03
554629,-0.03,-0.01,1.00,5.49,-1.83,6.90
554645,-0.01,0.03,1.02,1.22,-2.01,10.19
554661,-0.05,-0.03,1.01,-2.44,-1.83,18.19
554677,-0.05,-0.04,1.00,0.49,-1.22,22.16
554693,-0.03,-0.06,1.01,4.52,-1.28,28.75
554709,-0.01,-0.10,1.01,4.46,-1.28,27.40
554725,-0.02,-0.12,1.01,1.77,-1.28,23.99
554741,-0.01,-0.11,1.00,2.81,-1.59,14.89
554757,0.02,-0.11,1.01,2.75,-1.28,7.20
554773,0.02,-0.12,1.01,2.50,-1.22,4.21
554789,0.01,-0.14,1.00,2.01,-1.53,0.37
554805,0.02,-0.17,1.00,0.67,-1.95,-3.85
554821,0.03,-0.19,1.00,1.22,-1.89,-6.65
554837,0.03,-0.21,1.00,2.50,-1.89,-11.05
554853,0.03,-0.20,1.01,2.44,-2.01,-12.76
554869,0.03,-0.19,1.00,2.01,-2.08,-11.96
554885,0.03,-0.18,1.01,1.10,-2.26,-7.26
554901,0.02,-0.23,1.00,-0.06,-2.08,2.38
554917,0.02,-0.26,1.01,0.31,-2.08,7.45
554933,0.02,-0.11,1.00,0.61,-1.89,9.09
554949,-0.02,-0.10,1.01,4.94,-1.16,7.93
554965,-0.01,-0.14,1.01,4.70,-0.85,16.05
554981,0.02,-0.16,1.00,1.83,-0.85,32.96
554997,0.03,-0.16,1.01,-0.61,-1.40,40.10
555013,0.03,-0.19,1.00,0.12,-1.16,38.51
555029,0.02,-0.21,1.01,1.83,-1.28,30.40
555045,0.01,-0.23,1.01,1.83,-1.59,23.50
555061,0.00,-0.24,1.01,1.16,-1.65,21.00
555077,-0.01,-0.24,1.00,0.98,-1.65,14.95
555093,0.01,-0.24,1.01,2.99,-1.77,8.97
555109,0.02,-0.24,1.01,1.22,-1.95,6.71
555125,0.02,-0.22,1.01,-1.28,-2.75,2.50
555141,0.01,-0.18,1.01,-2.75,-2.75,-5.86
555157,0.01,-0.16,1.00,-1.40,-2.50,-11.35
555173,-0.03,-0.10,1.00,3.42,-2.44,-21.48
555189,-0.06,-0.04,1.00,-0.49,-2.93,-27.71
555205,-0.05,-0.01,1.01,-1.53,-2.87,-25.70
555221,-0.04,-0.02,1.00,-0.06,-2.01,-15.20
555237,-0.03,0.05,0.99,-0.67,-1.95,-4.39
555253,-0.02,-0.02,0.96,-0.85,-2.20,1.10
555269,-0.01,0.03,1.01,2.62,-2.38,5.25
555285,-0.04,0.00,0.99,1.59,-1.46,2.08
555301,-0.08,0.00,1.01,5.13,-1.83,-0.85
555317,-0.07,-0.06,0.98,-5.80,-2.01,-7.32
555333,-0.01,-0.04,1.01,0.85,-1.77,-9.46
555349,0.01,0.01,1.01,5.00,-1.46,-11.47
555365,-0.00,0.04,1.00,2.14,-2.26,-18.19
555381,0.00,0.07,0.99,3.05,-2.14,-22.52
555397,-0.02,0.09,1.00,5.86,-1.16,-24.35
555413,-0.04,0.08,1.02,3.85,-0.79,-28.38
555429,-0.03,0.12,1.01,2.26,-1.77,-28.93
555445,-0.03,0.13,1.00,0.85,-2.50,-28.26
555461,0.01,0.16,1.00,-1.53,-2.87,-24.66
555477,0.05,0.19,0.99,-0.98,-2.69,-19.96
555493,0.08,0.24,1.01,-0.79,-2.44,-18.49
555509,0.06,0.28,1.00,-3.05,-2.26,-15.99
555525,0.02,0.32,0.99,-2.20,-2.44,-16.54
555541,0.03,0.34,0.99,1.95,-2.44,-16.42
555557,0.04,0.37,1.00,9.09,-2.01,-10.07
555573,0.04,0.38,1.01,4.94,-1.77,-0.61
555589,-0.03,0.24,1.02,3.60,-1.77,3.91
555605,0.00,0.04,1.01,-0.61,-1.95,0.98
555621,0.02,0.11,1.01,-4.94,-2.38,-8.97
555637,0.02,0.15,0.99,-5.25,-2.38,-15.44
555653,0.02,0.22,1.00,-1.46,-2.14,-20.39
555669,0.01,0.24,1.00,-0.06,-1.95,-17.76
555685,0.02,0.25,1.00,4.39,-1.65,-14.34
555701,0.03,0.25,1.00,8.30,-1.46,-4.27
555717,0.03,0.25,1.01,7.45,-1.28,7.02
555733,0.01,0.22,1.01,1.28,-1.28,11.66
555749,0.02,0.18,1.00,-5.49,-1.71,17.88
555765,0.02,0.18,0.99,-5.92,-1.65,20.81
555781,-0.01,0.19,0.98,-2.38,-1.77,25.15
555797,-0.01,0.18,1.00,5.37,-1.46,26.67
555813,-0.00,0.16,1.00,7.45,-1.53,27.22
555829,0.00,0.14,1.02,10.68,-2.56,30.03
555845,0.01,0.11,1.00,0.61,-3.17,33.94
555861,-0.01,0.09,1.00,-1.77,-2.62,36.19
555877,-0.04,0.04,0.99,-4.03,-1.40,38.15
555893,-0.05,0.01,1.00,5.31,-2.08,34.18
555909,-0.04,0.01,1.00,8.42,-1.83,30.15
555925,-0.02,0.01,1.01,7.57,-1.59,20.45
555941,-0.01,-0.05,1.00,0.06,-1.65,13.67
555957,-0.01,-0.06,1.01,1.83,-2.20,10.68
555973,-0.04,-0.10,1.01,2.62,-1.53,5.68
555989,-0.02,-0.07,1.02,7.08,-1.83,-1.10
556005,-0.03,-0.09,1.02,-0.37,-2.01,-1.95
556021,-0.03,-0.10,1.00,-0.55,-1.89,1.04
556037,0.01,-0.06,1.01,7.20,-1.22,8.54
556053,0.02,-0.08,1.01,4.15,-1.59,11.29
556069,-0.01,-0.11,1.00,-0.31,-1.65,13.31
556085,-0.06,-0.11,1.00,-1.10,-1.89,14.22
556101,-0.06,-0.12,1.01,1.40,-1.65,13.12
556117,-0.05,-0.10,1.01,5.13,-1.40,6.65
556133,0.01,-0.09,1.00,5.00,-1.40,5.86
556149,0.02,-0.12,1.01,3.91,-1.40,7.26
556165,0.02,-0.17,1.00,0.24,-1.65,9.46
556181,0.02,-0.22,1.01,1.59,-1.59,10.93
556197,0.03,-0.25,1.01,2.01,-1.59,11.90
556213,0.03,-0.31,1.01,0.55,-1.71,11.29
556229,0.03,-0.34,1.01,-0.37,-1.95,5.19
556245,0.02,-0.34,1.01,-0.67,-2.01,1.83
556261,0.00,-0.04,1.00,-0.67,-1.95,-0.49
556277,0.00,-0.02,1.00,0.61,-1.77,2.69
556293,-0.04,-0.08,1.00,5.07,-1.59,3.42
556309,-0.02,-0.11,1.00,5.62,-1.22,12.45
556325,0.02,-0.13,1.01,2.87,-1.40,23.74
556341,0.03,-0.15,1.00,2.50,-1.34,27.95
556357,0.02,-0.20,1.01,2.26,-1.28,32.59
556373,0.02,-0.23,1.01,1.65,-1.34,32.17
556389,0.02,-0.24,1.01,1.04,-1.34,29.24
556405,0.03,-0.23,1.00,0.98,-1.34,19.10
556421,0.02,-0.21,1.00,1.04,-2.01,7.57
556437,0.01,-0.19,1.01,0.55,-2.01,2.14
556453,0.00,-0.17,1.00,-0.31,-2.44,-7.08
556469,-0.02,-0.15,1.01,-2.14,-2.62,-13.37
556485,-0.02,-0.15,1.01,-3.17,-2.62,-15.32
556501,-0.03,-0.11,1.00,0.85,-2.08,-18.43
556517,-0.03,-0.06,1.00,-0.24,-2.50,-22.64
556533,-0.02,-0.04,1.01,-2.62,-2.50,-23.93
556549,-0.01,0.00,1.00,-3.11,-2.62,-20.51
556565,-0.00,-0.00,1.00,-3.48,-1.71,-13.85
556581,-0.01,-0.01,1.00,-3.30,-1.46,-10.62
556597,-0.03,-0.03,0.96,-2.26,-1.40,-5.68
556613,-0.02,0.04,0.99,16.48,-2.50,0.98
556629,-0.01,0.08,1.03,17.03,-2.14,2.99
556645,-0.01,0.07,1.00,-1.40,-1.53,3.97
556661,-0.03,0.05,0.99,3.23,-2.08,1.40
556677,-0.05,0.01,1.01,2.38,-2.32,-3.91
556693,-0.01,-0.02,0.99,-1.22,-2.38,-12.39
556709,-0.03,-0.04,0.98,8.24,-1.95,-16.48
556725,-0.01,0.03,1.01,5.37,-1.65,-18.13
556741,-0.01,0.07,1.01,-1.28,-1.83,-18.31
556757,-0.01,0.06,1.00,-3.91,-2.20,-18.68
556773,-0.02,0.02,0.99,-1.77,-2.20,-18.31
556789,-0.01,0.00,0.99,2.87,-1.40,-18.92
556805,-0.01,-0.00,1.00,5.07,-0.79,-20.26
556821,-0.02,0.05,1.02,6.23,-1.04,-23.44
556837,0.03,0.08,1.02,-3.60,-1.59,-23.44
556853,0.03,0.08,1.01,-8.36,-1.40,-21.42
556869,0.01,0.06,1.00,-5.43,-1.95,-14.77
556885,0.00,0.04,0.99,-5.31,-2.01,-11.78
556901,0.00,0.04,1.00,-5.74,-2.14,-12.08
556917,0.01,0.06,1.00,-0.67,-2.56,-13.92
556933,0.02,0.09,1.00,0.06,-2.38,-16.42
556949,0.01,0.11,1.01,-1.59,-2.32,-16.60
556965,0.02,0.14,1.00,-5.07,-2.08,-16.48
556981,0.02,0.22,0.99,-2.20,-2.14,-16.97
556997,0.02,0.26,0.98,3.54,-1.95,-18.55
557013,0.03,0.33,1.00,21.12,-2.01,-19.96
557029,0.02,0.31,1.03,20.20,-1.89,-11.23
557045,-0.00,0.07,1.04,8.97,-1.83,-1.65
557061,0.01,0.01,1.01,-13.43,-2.32,2.01
557077,-0.02,0.05,1.00,-19.84,-2.14,-2.56
557093,-0.03,0.08,0.98,-18.19,-1.95,-10.25
557109,-0.02,0.18,0.97,0.31,-1.40,-25.27
557125,0.02,0.27,1.00,18.49,-1.28,-30.21
557141,0.04,0.28,1.01,21.67,-1.34,-27.95
557157,0.07,0.25,1.01,17.33,-1.53,-10.62
557173,0.05,0.19,1.02,3.48,-1.28,13.73
557189,0.03,0.15,1.01,-4.52,-1.46,23.32
557205,0.01,0.10,1.00,-13.55,-1.89,32.71
557221,-0.00,0.08,0.98,-12.02,-1.95,32.23
557237,0.00,0.07,0.99,-5.68,-2.08,30.09
557253,0.02,0.07,1.00,3.72,-2.14,25.94
557269,0.01,0.07,1.02,4.27,-1.95,25.15
557285,0.02,0.06,1.01,3.66,-2.14,26.06
557301,-0.01,0.05,1.01,1.34,-3.05,26.98
557317,-0.02,0.06,1.00,0.18,-3.42,25.39
557333,-0.02,0.07,1.00,1.65,-3.23,25.27
557349,-0.00,0.08,0.99,3.72,-1.59,24.72
557365,-0.01,0.06,1.00,9.95,-1.65,22.89
557381,-0.00,0.05,1.00,13.98,-1.65,23.01
557397,-0.01,0.03,1.01,11.11,-1.95,24.90
557413,-0.03,-0.01,1.00,1.77,-1.89,29.48
557429,-0.04,-0.03,1.00,1.34,-1.40,31.25
557445,-0.04,-0.02,1.00,4.82,-1.53,30.64
557461,-0.03,-0.03,1.01,5.55,-1.59,26.18
557477,-0.04,-0.04,1.00,5.13,-1.28,23.62
557493,-0.03,-0.04,1.01,10.19,-1.22,18.07
557509,-0.05,-0.10,0.98,-3.30,-1.71,12.76
557525,-0.03,-0.08,1.01,2.69,-1.83,11.41
557541,0.01,-0.03,1.01,3.60,-1.46,13.85
557557,0.00,-0.04,1.00,1.83,-1.53,22.22
557573,-0.01,-0.04,1.01,2.14,-1.77,26.31
557589,-0.03,-0.06,1.00,1.22,-1.16,30.88
557605,-0.01,-0.09,1.01,3.30,-0.92,29.24
557621,-0.01,-0.10,1.00,2.44,-0.92,26.00
557637,-0.02,-0.08,1.01,3.91,-1.28,20.87
557653,-0.03,-0.09,1.00,0.49,-1.34,18.74
557669,-0.04,-0.09,1.01,0.73,-1.22,18.74
557685,-0.03,-0.10,1.00,2.26,-1.16,17.58
557701,-0.01,-0.11,1.00,2.81,-1.65,14.71
557717,0.02,-0.12,1.01,2.87,-1.65,13.12
557733,0.04,-0.13,1.00,3.36,-1.65,8.12
557749,0.03,-0.15,1.01,2.26,-1.89,4.64
557765,0.00,-0.21,1.01,1.40,-1.71,3.78
557781,-0.00,-0.27,1.01,0.55,-1.83,3.72
557797,0.01,-0.29,1.01,-0.43,-1.95,2.14
557813,0.05,-0.32,1.01,-1.10,-2.08,0.18
557829,-0.01,-0.05,1.01,1.53,-1.95,2.69
557845,-0.03,-0.12,1.00,0.12,-1.83,4.58
557861,-0.02,-0.19,1.01,-0.06,-1.83,8.48
557877,0.01,-0.23,1.01,0.06,-1.77,11.90
557893,0.02,-0.25,1.01,-0.85,-1.77,13.37
557909,0.03,-0.26,1.00,-1.53,-1.89,13.12
557925,0.03,-0.24,1.01,-0.31,-1.95,6.29
557941,0.02,-0.23,1.01,-1.71,-1.89,0.43
557957,-0.00,-0.21,1.00,-7.02,-1.59,-13.85
557973,-0.04,-0.16,1.00,-5.55,-1.77,-24.60
557989,-0.03,-0.14,1.00,-3.11,-2.08,-27.10
558005,-0.02,-0.13,1.00,1.77,-2.69,-27.47
558021,0.01,-0.14,1.00,6.53,-2.44,-21.91
558037,0.00,-0.15,1.01,8.18,-2.26,-18.49
558053,0.00,-0.15,1.01,7.32,-2.01,-13.61
558069,-0.04,-0.11,1.00,-1.53,-2.26,-12.33
558085,-0.05,-0.11,0.99,-6.04,-2.44,-13.12
558101,-0.02,-0.05,1.02,-5.74,-2.62,-13.67
558117,-0.01,-0.08,0.99,-5.80,-1.34,-10.44
558133,-0.01,-0.03,0.98,-3.78,-1.28,-8.79
558149,-0.07,-0.06,0.99,17.46,-2.26,-4.76
558165,-0.02,0.02,1.04,15.63,-2.08,-5.49
558181,-0.00,-0.01,0.99,3.23,-1.59,-4.88
558197,-0.03,-0.01,1.03,3.78,-2.50,0.00
558213,0.00,-0.02,0.97,-4.76,-2.14,-0.43
558229,-0.04,0.00,1.00,0.37,-1.65,-4.03
558245,-0.03,0.04,1.02,4.58,-1.89,-18.19
558261,-0.06,0.06,0.99,9.28,-2.38,-30.82
558277,-0.06,0.09,1.00,11.84,-1.65,-33.94
558293,-0.01,0.11,1.00,2.26,-0.92,-31.01
558309,0.00,0.18,1.01,1.77,-2.14,-21.18
558325,0.03,0.19,0.99,3.42,-2.08,-17.40
558341,0.03,0.19,1.00,7.39,-2.08,-10.38
558357,0.00,0.19,1.00,2.99,-2.14,-3.91
558373,0.01,0.24,1.01,3.60,-2.01,-1.53
558389,0.01,0.23,1.00,-3.30,-2.50,-2.32
558405,0.04,0.26,1.00,0.49,-2.32,-8.61
558421,0.05,0.28,1.00,0.79,-2.08,-10.68
558437,0.05,0.30,1.00,0.73,-1.89,-6.10
558453,0.06,0.30,1.00,-1.46,-2.14,3.66
558469,0.06,0.30,1.00,-2.44,-2.08,8.73
558485,0.02,0.17,1.02,-3.85,-1.95,14.04
558501,0.01,0.01,1.00,-2.32,-1.89,2.08
558517,0.00,0.03,1.02,-3.48,-2.01,1.77
558533,0.03,0.12,1.00,-14.95,-2.26,-1.65
558549,0.02,0.15,0.99,-6.04,-2.01,-7.63
558565,0.02,0.17,1.00,-0.37,-1.77,-10.50
558581,0.04,0.18,1.00,6.65,-1.59,-12.82
558597,0.05,0.19,1.00,8.18,-1.65,-8.91
558613,0.05,0.17,1.00,7.81,-1.65,-4.94
558629,0.05,0.16,1.01,6.41,-1.65,5.07
558645,0.03,0.15,1.00,-1.22,-1.53,14.04
558661,0.01,0.14,1.00,-3.17,-1.77,16.54
558677,0.00,0.13,1.00,1.16,-1.65,18.68
558693,-0.00,0.11,1.00,3.97,-1.59,18.01
558709,-0.01,0.12,0.99,4.70,-1.53,16.91
558725,0.00,0.11,1.00,7.87,-1.59,14.40
558741,0.01,0.11,1.00,6.65,-2.20,13.92
558757,0.02,0.11,1.01,7.08,-2.26,15.32
558773,0.01,0.13,1.01,4.52,-2.38,18.31
558789,-0.01,0.11,1.01,-3.42,-2.50,19.35
558805,-0.03,0.06,0.99,-1.16,-1.95,20.51
558821,-0.04,0.05,1.00,0.98,-1.16,22.03
558837,-0.05,0.04,1.00,3.85,-2.08,20.20
558853,-0.01,0.02,1.00,4.82,-2.14,18.92
558869,-0.01,0.02,1.00,2.75,-2.20,15.87
558885,-0.02,0.01,0.99,1.16,-1.53,16.17
558901,-0.02,0.00,1.01,-0.55,-1.71,16.24
558917,-0.04,-0.03,1.00,0.43,-2.32,13.85
558933,-0.05,-0.04,1.00,1.46,-1.89,12.15
558949,-0.05,-0.00,0.99,5.86,-1.46,8.85
558965,-0.05,-0.06,0.99,-7.69,-1.77,8.42
558981,-0.03,-0.05,1.00,-3.78,-1.95,10.99
558997,-0.00,-0.02,1.00,5.55,-1.53,18.68
559013,0.00,-0.02,0.99,3.36,-1.16,25.76
559029,-0.00,-0.03,1.01,4.70,-1.28,27.59
559045,-0.02,-0.06,1.00,2.01,-1.34,29.54
559061,-0.02,-0.09,1.00,2.14,-1.46,29.24
559077,-0.03,-0.14,1.01,2.44,-1.10,28.32
559093,0.00,-0.21,1.01,4.70,-1.04,27.77
559109,0.00,-0.30,1.01,2.26,-1.10,26.06
559125,-0.00,-0.34,1.01,1.40,-1.04,23.62
559141,0.01,-0.41,1.01,-1.89,-1.71,16.24
559157,0.00,-0.45,1.01,-1.65,-2.01,6.47
559173,-0.00,-0.44,1.01,-1.83,-1.95,0.92
559189,0.01,-0.02,1.01,0.31,-1.77,-2.99
559205,-0.01,-0.04,1.00,2.87,-1.71,0.73
559221,-0.04,-0.09,1.01,6.47,-1.53,0.49
559237,-0.02,-0.16,1.00,6.47,-1.34,3.17
559253,0.03,-0.19,1.01,5.00,-1.34,10.50
559269,0.04,-0.22,1.01,3.54,-1.34,14.53
559285,0.04,-0.26,1.01,1.95,-1.53,20.32
559301,0.02,-0.28,1.01,1.65,-1.83,18.37
559317,0.00,-0.28,1.01,0.85,-1.89,14.89
559333,-0.01,-0.27,1.01,-0.55,-2.20,4.03
559349,-0.02,-0.24,1.01,-1.34,-2.32,-9.34
559365,-0.02,-0.20,1.01,-2.08,-2.32,-15.38
559381,-0.04,-0.13,1.00,-1.65,-2.20,-26.79
559397,-0.03,-0.07,1.00,-1.34,-2.75,-35.22
559413,-0.03,-0.06,0.99,-0.67,-2.81,-36.25
559429,-0.02,-0.02,1.01,4.94,-2.69,-31.01
559445,-0.02,-0.03,1.00,1.77,-1.89,-20.57
559461,-0.02,-0.03,1.01,1.95,-1.83,-14.40
559477,-0.02,-0.02,1.01,2.20,-2.01,-6.59
559493,-0.01,-0.05,0.97,-4.70,-2.08,-2.62
559509,0.00,0.04,1.04,5.43,-2.44,1.89
559525,0.01,0.01,1.00,4.88,-1.22,5.86
559541,-0.03,0.00,1.01,5.55,-1.59,10.19
559557,-0.05,-0.01,1.01,5.00,-1.77,9.64
559573,-0.06,-0.05,0.98,-3.91,-2.08,6.71
559589,-0.02,0.01,1.01,1.46,-1.53,-1.71
559605,0.00,0.01,1.00,1.10,-1.65,-5.86
559621,0.03,0.03,0.99,-0.79,-2.56,-12.94
559637,0.02,0.04,0.98,2.99,-2.50,-15.99
559653,0.01,0.07,1.00,6.04,-1.95,-18.31
559669,0.02,0.12,1.01,2.93,-1.46,-23.01
559685,0.03,0.19,1.00,2.69,-1.59,-24.60
559701,0.03,0.20,1.00,2.01,-2.14,-24.90
559717,0.01,0.24,1.00,-2.44,-2.81,-21.97
559733,0.02,0.27,0.99,-2.44,-2.81,-19.04
559749,0.02,0.28,0.99,-0.67,-2.81,-18.43
559765,0.02,0.35,1.02,6.96,-2.62,-17.46
559781,0.03,0.38,1.00,0.31,-2.26,-13.24
559797,0.03,0.40,0.99,0.31,-2.01,-9.58
559813,0.00,0.07,1.04,-4.15,-2.01,-2.14
559829,-0.00,0.04,1.01,-20.14,-1.83,-2.08
559845,-0.02,0.03,0.97,-17.40,-2.20,-11.35
559861,0.01,0.08,0.98,1.10,-1.83,-28.63
559877,0.02,0.13,1.00,12.39,-1.65,-37.90
559893,0.05,0.21,1.02,8.24,-1.65,-39.79
559909,0.05,0.20,0.99,0.98,-1.71,-32.41
559925,0.05,0.21,1.00,1.95,-1.40,-15.01
559941,0.03,0.20,1.00,0.00,-1.34,-6.71
559957,0.02,0.17,0.99,4.27,-1.22,6.16
559973,0.02,0.16,1.00,7.57,-1.22,10.13
559989,0.00,0.13,1.01,7.20,-1.59,11.54
560005,0.03,0.07,1.00,5.07,-1.89,8.73