time,accel_x,accel_y,accel_z,gyro_x,gyro_y,gyro_z
500022,0.01,0.26,1.00,3.72,-1.65,0.24
500037,0.02,0.25,0.99,2.87,-1.59,12.76
500053,0.01,0.21,0.99,1.59,-1.28,22.22
500069,0.01,0.17,1.00,0.98,-0.98,25.21
500085,0.01,0.11,1.01,2.32,-1.16,26.37
500101,-0.01,0.08,1.01,1.16,-1.22,24.96
500117,-0.02,0.11,1.00,3.42,-1.46,24.17
500133,-0.01,0.13,1.00,0.85,-2.01,22.52
500149,-0.00,0.08,0.99,-2.32,-2.08,21.18
500165,0.00,0.05,1.01,3.23,-1.04,20.08
500181,0.01,-0.02,1.00,1.59,-1.95,14.95
500197,-0.03,-0.02,1.00,0.37,-2.38,10.44
500213,-0.04,-0.01,1.00,-0.85,-2.14,9.03
500229,-0.02,-0.00,1.01,-2.50,-1.40,10.07
500245,0.01,-0.00,1.00,0.98,-1.65,12.70
500261,0.02,-0.02,1.00,2.50,-1.65,14.16
500277,0.02,-0.08,0.99,5.25,-1.40,15.63
500293,0.01,-0.13,1.01,-3.60,-1.89,13.43
500309,-0.00,-0.15,1.01,-2.14,-2.32,11.41
500325,-0.02,-0.10,1.00,0.31,-1.53,9.89
500341,-0.03,-0.11,1.00,2.99,-1.65,9.16
500357,0.00,-0.10,1.00,0.00,-1.77,9.89
500373,0.00,-0.13,1.00,1.10,-1.46,13.24
500389,-0.00,-0.20,1.00,2.26,-1.28,13.37
500405,-0.01,-0.23,1.01,2.44,-1.16,12.02
500421,0.01,-0.28,1.01,3.48,-1.28,11.11
500437,-0.00,-0.28,1.01,0.73,-1.53,7.20
500453,-0.01,-0.24,1.01,1.16,-1.71,1.77
500469,0.01,-0.21,1.00,0.73,-1.89,-6.29
500485,0.01,-0.19,1.01,0.92,-1.95,-6.29
500501,0.02,-0.21,1.01,1.16,-2.01,-5.98
500517,0.01,-0.01,1.01,2.75,-1.83,-2.56
500533,0.01,-0.01,1.00,4.21,-1.59,3.23
500549,-0.00,-0.13,1.01,4.39,-1.40,8.12
500565,0.04,-0.19,1.01,2.20,-1.40,22.16
500581,0.03,-0.20,1.00,-0.18,-1.46,25.33
500597,0.01,-0.22,1.01,-0.73,-1.77,22.77
500613,0.01,-0.23,1.01,0.37,-1.77,13.55
500629,0.03,-0.24,1.01,1.22,-1.77,8.73
500645,0.03,-0.24,1.01,0.85,-2.08,0.37
500661,0.01,-0.23,1.01,0.92,-2.20,-6.84
500677,-0.00,-0.22,1.01,1.77,-2.26,-10.31
500693,-0.02,-0.17,1.00,0.98,-2.38,-16.24
500709,-0.03,-0.13,1.00,2.08,-2.20,-19.53
500725,-0.02,-0.12,1.00,1.34,-2.26,-18.55
500741,0.01,-0.11,1.00,-2.62,-2.44,-8.73
500757,0.00,-0.12,1.00,2.99,-1.71,-0.31
500773,-0.01,-0.12,1.00,3.17,-1.53,1.71
500789,-0.05,-0.07,1.02,4.58,-1.95,1.77
500805,-0.07,-0.09,1.00,2.50,-1.83,-5.00
500821,-0.05,-0.07,1.00,1.10,-1.95,-8.54
500837,-0.04,-0.07,1.00,1.40,-2.50,-14.83
500853,-0.03,-0.06,0.95,-1.53,-2.69,-20.39
500869,-0.04,0.02,1.01,7.32,-2.14,-21.61
500885,-0.02,0.04,1.00,1.10,-2.26,-22.34
500901,-0.03,0.06,0.99,-0.43,-2.20,-17.64
500917,-0.01,0.05,0.97,4.52,-1.34,-14.89
500933,0.03,0.07,1.01,6.84,-1.22,-15.01
500949,0.02,0.10,1.00,0.61,-2.44,-14.16
500965,0.02,0.11,1.01,3.48,-2.69,-13.73
500981,0.01,0.06,1.00,1.34,-2.62,-17.09
500997,-0.02,0.07,0.98,1.10,-2.75,-22.77
501013,-0.00,0.07,0.99,0.67,-2.75,-27.77
501029,0.02,0.16,0.99,-3.11,-3.42,-36.74
501045,0.04,0.27,0.99,0.43,-2.62,-37.90
501061,0.02,0.34,1.00,1.59,-2.01,-35.52
501077,0.00,0.41,1.00,2.14,-2.14,-26.86
501093,-0.01,0.45,1.00,1.10,-1.89,-11.90
501109,-0.00,0.45,1.00,1.10,-1.83,-4.52
501125,-0.04,0.42,1.00,2.08,-1.71,5.49
501141,0.02,0.04,1.00,-0.79,-2.01,3.30
501157,0.05,0.12,1.00,-0.24,-2.08,-0.85
501173,-0.02,0.23,1.00,-1.10,-2.56,-18.07
501189,-0.02,0.35,1.00,0.18,-2.87,-31.68
501205,-0.04,0.42,1.00,0.73,-2.75,-32.65
501221,-0.09,0.43,1.00,1.95,-2.87,-29.30
501237,-0.06,0.35,1.00,4.15,-2.32,-17.88
501253,-0.05,0.31,1.00,4.58,-1.83,-9.70
501269,-0.03,0.22,1.00,3.36,-1.65,9.89
501285,-0.05,0.14,1.00,0.67,-1.95,25.15
501301,-0.07,0.10,1.00,-0.55,-1.77,27.83
501317,-0.06,0.05,1.00,-2.08,-1.65,23.62
501333,-0.02,0.02,1.01,3.66,-0.79,17.64
501349,-0.04,0.04,1.02,3.85,-0.61,15.08
501365,-0.04,0.06,1.01,0.98,-1.53,11.11
501381,-0.00,0.01,0.99,0.12,-3.23,13.49
501397,0.01,0.01,0.99,0.61,-3.23,15.44
501413,0.01,0.03,1.00,1.34,-2.44,18.74
501429,0.02,-0.04,1.01,1.10,-1.77,26.00
501445,0.01,-0.07,1.01,1.71,-2.14,30.94
501461,-0.01,-0.10,1.01,1.95,-1.34,36.80
501477,0.03,-0.16,1.01,1.04,-0.85,35.28
501493,0.05,-0.17,1.01,2.99,-0.67,33.08
501509,0.06,-0.13,1.00,3.30,-1.46,25.21
501525,0.06,-0.12,0.99,2.20,-1.59,16.91
501541,0.06,-0.12,1.00,1.53,-1.40,15.75
501557,0.02,-0.12,1.01,3.30,-1.40,15.26
501573,0.04,-0.08,1.02,-3.23,-1.71,12.63
501589,0.05,-0.12,1.01,0.61,-1.83,12.51
501605,0.06,-0.10,1.01,3.42,-1.65,14.28
501621,0.04,-0.10,1.01,0.98,-1.59,17.76
501637,-0.02,-0.14,1.00,1.65,-1.53,19.96
501653,-0.00,-0.14,1.00,2.56,-1.34,25.88
501669,0.01,-0.17,1.01,2.26,-1.34,22.95
501685,0.03,-0.22,1.01,1.34,-1.34,17.64
501701,0.05,-0.25,1.01,2.14,-1.59,8.36
501717,0.03,-0.27,1.01,1.34,-1.65,5.07
501733,-0.02,-0.21,1.00,2.62,-1.77,0.79
501749,0.06,-0.08,1.00,3.05,-1.59,3.72
501765,0.10,-0.13,1.00,4.70,-1.28,10.01
501781,0.09,-0.20,1.00,2.44,-1.04,28.56
501797,0.04,-0.23,1.01,-0.61,-1.65,39.49
501813,0.01,-0.23,1.01,-1.59,-1.89,40.34
501829,-0.06,-0.19,1.01,-2.93,-2.08,32.96
501845,-0.10,-0.08,1.00,-0.79,-2.01,15.99
501861,-0.09,-0.03,1.00,0.61,-2.01,4.27
501877,0.01,-0.04,1.00,4.39,-1.95,-8.67
501893,0.07,-0.11,1.00,4.33,-1.83,-0.79
501909,0.07,-0.14,1.00,2.81,-1.77,6.23
501925,0.02,-0.14,1.00,-0.49,-1.95,14.22
501941,-0.04,-0.07,1.01,-1.28,-1.89,10.50
501957,-0.02,-0.07,1.00,-0.79,-1.83,6.65
501973,0.01,-0.03,1.01,5.62,-1.46,0.12
501989,-0.01,-0.05,1.01,5.00,-1.46,-0.24
502005,0.00,-0.08,1.00,3.91,-1.34,0.55
502021,0.01,-0.12,1.00,2.14,-1.40,2.75
502037,-0.01,-0.09,1.00,-0.37,-1.83,-0.12
502053,-0.02,-0.08,1.01,-0.37,-2.14,-2.14
502069,0.00,-0.02,1.01,-0.31,-2.26,-7.26
502085,0.00,-0.02,0.99,5.62,-1.95,-12.57
502101,0.02,-0.00,1.01,3.54,-2.14,-15.14
502117,0.02,-0.02,1.00,1.71,-2.01,-14.89
502133,-0.03,0.03,1.00,-2.01,-2.62,-9.83
502149,-0.02,0.03,0.99,-2.08,-2.01,-9.03
502165,-0.00,0.03,0.99,10.50,-1.53,-7.51
502181,0.02,0.09,1.01,6.47,-1.46,-11.96
502197,0.00,0.10,1.00,-0.92,-1.83,-14.71
502213,0.01,0.08,1.00,-0.12,-2.56,-16.54
502229,-0.01,0.12,1.00,-0.37,-2.81,-16.48
502245,-0.00,0.12,1.00,-1.16,-2.99,-16.78
502261,-0.00,0.16,1.00,-0.18,-2.93,-16.54
502277,-0.05,0.24,1.00,2.99,-2.56,-17.82
502293,-0.03,0.25,1.00,0.31,-2.32,-18.19
502309,-0.04,0.29,1.00,2.20,-2.26,-13.18
502325,-0.04,0.35,1.00,2.44,-2.26,-7.08
502341,-0.03,0.37,1.00,2.69,-2.08,-5.62
502357,0.10,0.23,1.01,2.93,-1.89,-3.11
502373,-0.12,0.14,1.00,-1.40,-2.26,-1.59
502389,-0.07,0.14,1.00,-1.77,-2.44,-8.54
502405,-0.04,0.24,1.00,1.65,-2.44,-19.78
502421,-0.05,0.34,1.00,1.59,-2.20,-24.48
502437,-0.02,0.35,1.00,3.30,-1.95,-23.38
502453,0.02,0.34,0.99,4.94,-1.71,-13.24
502469,0.03,0.32,1.00,4.27,-1.34,2.99
502485,0.03,0.31,0.99,2.87,-1.28,10.31
502501,0.05,0.26,1.00,3.05,-0.73,18.01
502517,0.03,0.21,1.01,2.81,-0.85,19.96
502533,0.00,0.18,1.00,0.18,-0.85,19.53
502549,-0.04,0.15,1.00,2.56,-2.08,12.88
502565,-0.07,0.18,0.98,-2.14,-2.69,-0.18
502581,-0.04,0.16,0.98,-2.20,-2.44,-3.23
502597,-0.01,0.15,1.00,5.80,-1.16,-2.32
502613,-0.00,0.12,1.01,1.71,-2.87,-1.34
502629,-0.00,0.08,1.00,-0.55,-2.75,0.24
502645,-0.04,0.06,1.01,-2.99,-1.22,6.47
502661,-0.04,0.03,1.00,1.40,-1.77,12.33
502677,-0.03,-0.01,1.01,3.72,-1.83,14.59
502693,0.01,-0.04,1.01,3.91,-2.14,17.88
502709,0.02,-0.12,1.02,-6.10,-1.40,22.09
502725,0.04,-0.19,1.01,3.85,-1.04,21.12
502741,0.02,-0.17,1.01,5.74,-1.28,14.59
502757,-0.00,-0.11,1.00,4.27,-1.89,10.86
502773,-0.03,-0.12,1.01,-0.73,-1.83,1.77
502789,0.03,-0.10,1.01,0.85,-1.34,6.41
502805,0.05,-0.10,1.01,1.53,-1.34,14.34
502821,0.01,-0.22,1.00,-1.34,-1.59,23.19
502837,0.01,-0.29,1.01,5.00,-0.73,26.92
502853,0.04,-0.33,1.01,2.08,-0.73,28.02
502869,0.08,-0.40,1.01,1.53,-1.46,25.57
502885,0.05,-0.45,1.01,-0.92,-1.95,16.60
502901,0.05,-0.47,1.01,-2.56,-2.26,10.50
502917,-0.01,-0.43,1.01,-0.92,-2.01,-0.92
502933,0.01,-0.03,1.01,4.88,-1.53,1.28
502949,0.01,-0.11,1.00,2.38,-1.34,5.07
502965,0.01,-0.21,1.01,7.26,-0.61,15.99
502981,0.07,-0.29,1.01,2.20,-1.10,27.53
502997,0.08,-0.33,1.01,2.81,-0.67,30.64
503013,0.04,-0.34,1.01,0.43,-1.10,28.63
503029,-0.00,-0.26,1.01,-1.83,-2.14,14.10
503045,0.01,-0.25,1.00,-2.44,-2.20,4.15
503061,0.01,-0.20,1.01,1.89,-2.69,-13.79
503077,0.03,-0.18,1.01,4.33,-2.01,-23.13
503093,0.02,-0.16,1.01,4.94,-1.77,-23.99
503109,-0.02,-0.11,1.00,0.18,-2.81,-23.50
503125,-0.00,-0.01,1.01,-1.16,-3.66,-20.20
503141,0.02,0.02,1.00,-1.10,-2.87,-16.54
503157,0.03,-0.00,0.99,3.72,-1.89,-3.78
503173,0.03,-0.07,1.00,4.21,-1.65,9.16
503189,-0.00,-0.07,1.00,2.50,-1.53,13.00
503205,-0.04,-0.01,1.00,-3.66,-2.44,12.76
503221,-0.01,0.03,1.00,-0.06,-1.53,7.20
503237,0.00,0.08,1.00,2.44,-1.22,6.23
503253,-0.01,0.02,1.01,6.71,-1.16,7.57
503269,-0.02,-0.04,1.01,4.64,-1.53,4.76
503285,-0.04,-0.00,1.01,2.75,-1.83,2.01
503301,-0.06,0.02,1.00,0.00,-2.50,-4.46
503317,-0.04,0.05,1.01,0.85,-2.81,-9.52
503333,-0.01,0.05,0.98,-2.01,-2.44,-11.35
503349,0.01,0.06,1.01,2.69,-2.44,-9.83
503365,-0.01,0.05,1.01,0.12,-2.20,-6.23
503381,-0.03,0.06,1.01,-5.00,-2.01,-5.86
503397,-0.04,0.07,0.96,-2.93,-1.83,-10.80
503413,-0.01,0.19,1.01,13.12,-1.71,-20.94
503429,0.02,0.22,1.02,12.94,-1.77,-23.99
503445,0.03,0.22,1.00,2.99,-2.32,-18.43
503461,-0.00,0.17,1.01,0.24,-2.26,-5.80
503477,-0.01,0.14,1.00,-1.95,-2.26,-3.05
503493,-0.06,0.18,1.00,-0.92,-2.50,-6.84
503509,-0.03,0.28,1.01,0.31,-2.62,-18.43
503525,-0.04,0.34,0.99,2.38,-2.50,-19.90
503541,0.02,0.41,0.99,1.46,-2.20,-14.53
503557,0.01,0.17,1.00,0.67,-1.95,-3.23
503573,-0.09,0.15,0.99,-2.20,-1.83,-1.95
503589,-0.04,0.22,1.00,2.32,-2.20,-12.45
503605,-0.00,0.27,1.00,0.98,-2.08,-13.37
503621,-0.00,0.30,1.00,1.71,-1.89,-11.96
503637,0.01,0.31,1.00,4.76,-1.65,-9.70
503653,0.02,0.31,1.00,5.49,-1.53,-3.97
503669,0.02,0.29,1.00,4.33,-1.46,0.24
503685,0.02,0.22,1.00,0.67,-1.34,10.56
503701,-0.00,0.21,1.00,1.59,-1.95,19.29
503717,-0.04,0.19,1.01,1.16,-2.38,20.39
503733,-0.03,0.14,0.99,-4.33,-2.56,20.69
503749,-0.02,0.12,0.98,4.46,-1.22,21.30
503765,-0.01,0.09,1.01,5.98,-0.92,21.30
503781,0.01,0.02,1.00,5.31,-1.53,18.98
503797,0.02,-0.01,1.00,3.17,-2.08,14.47
503813,0.02,-0.06,1.01,-0.43,-1.95,11.84
503829,-0.03,0.00,1.00,-2.81,-1.95,4.33
503845,-0.04,0.02,1.00,-1.46,-2.08,1.71
503861,-0.04,0.07,1.00,4.03,-1.59,2.75
503877,-0.03,0.01,1.00,7.81,-1.40,3.60
503893,0.02,0.05,1.00,8.18,-1.83,3.78
503909,0.01,0.02,1.00,0.55,-1.59,4.46
503925,0.02,0.07,1.00,2.62,-1.83,6.77
503941,0.01,0.06,1.00,2.20,-2.01,11.47
503957,-0.02,-0.00,1.01,1.34,-1.34,21.55
503973,-0.02,-0.09,1.00,1.46,-0.73,31.25
503989,0.01,-0.12,1.00,3.66,-0.37,35.34
504005,0.02,-0.24,1.02,0.92,-0.49,35.83
504021,0.04,-0.27,1.01,-1.83,-1.53,29.91
504037,0.04,-0.28,1.01,-0.92,-1.53,25.57
504053,0.02,-0.32,1.01,1.89,-0.98,15.50
504069,-0.00,-0.36,1.01,1.46,-1.77,6.23
504085,-0.01,-0.39,1.01,1.04,-2.08,2.75
504101,0.02,-0.40,1.01,0.18,-2.08,-2.20
504117,0.06,-0.35,1.01,0.73,-2.08,-6.10
504133,0.09,-0.18,1.00,0.85,-1.95,-6.10
504149,-0.03,-0.10,1.00,1.71,-1.71,5.19
504165,-0.02,-0.15,1.01,3.23,-1.34,15.93
504181,-0.01,-0.21,1.01,2.62,-1.04,20.75
504197,0.02,-0.28,1.01,2.75,-0.67,29.05
504213,0.00,-0.30,1.01,-1.22,-1.40,27.28
504229,0.03,-0.31,1.01,-1.95,-1.59,21.48
504245,0.04,-0.26,1.01,1.83,-1.77,3.72
504261,0.00,-0.20,1.01,0.24,-2.69,-14.10
504277,-0.00,-0.17,1.00,1.40,-2.50,-18.86
504293,0.01,-0.12,1.00,3.66,-2.14,-21.30
504309,0.03,-0.10,1.00,2.56,-2.32,-16.78
504325,0.03,-0.10,1.00,-0.31,-2.62,-13.49
504341,0.01,-0.09,1.00,0.98,-3.36,-6.10
504357,-0.04,-0.05,1.00,-0.49,-2.20,-5.43
504373,-0.05,-0.03,1.01,0.73,-1.89,-5.31
504389,-0.01,-0.01,1.00,3.17,-2.14,-1.22
504405,0.01,-0.04,1.01,-1.10,-2.20,6.41
504421,0.03,-0.05,1.01,-0.31,-1.65,8.73
504437,0.02,-0.08,1.00,-1.59,-1.28,6.90
504453,-0.04,-0.05,1.01,-1.59,-2.44,-2.01
504469,-0.07,0.05,1.03,6.47,-2.69,-6.23
504485,-0.02,0.09,1.00,3.11,-1.89,-13.85
504501,0.01,0.10,1.00,2.99,-1.65,-9.09
504517,-0.00,0.07,1.00,3.30,-2.32,-5.80
504533,-0.01,-0.01,1.03,-1.10,-1.89,-2.69
504549,-0.05,-0.04,1.00,1.10,-1.40,-5.13
504565,-0.05,0.01,1.01,1.40,-1.65,-10.62
504581,-0.02,0.07,1.00,-0.31,-2.20,-21.79
504597,0.01,0.10,0.99,-1.34,-2.69,-26.79
504613,0.02,0.11,0.99,3.42,-2.56,-28.14
504629,0.03,0.13,1.00,7.08,-1.28,-30.15
504645,0.01,0.13,1.01,2.08,-2.20,-27.89
504661,-0.01,0.15,1.00,-0.61,-2.56,-26.18
504677,-0.05,0.27,1.00,0.61,-3.05,-27.34
504693,-0.03,0.34,0.99,3.54,-2.99,-29.30
504709,0.00,0.38,0.99,6.53,-2.62,-27.04
504725,0.01,0.41,0.99,7.39,-2.20,-17.52
504741,0.00,0.41,0.99,2.93,-2.01,-4.46
504757,-0.00,0.23,1.01,1.46,-1.89,0.18
504773,-0.01,0.09,1.00,-5.62,-2.32,-1.28
504789,-0.02,0.13,1.00,-5.74,-2.56,-17.46
504805,-0.03,0.23,0.99,-2.87,-2.50,-24.66
504821,-0.02,0.33,1.00,7.87,-2.44,-33.02
504837,-0.02,0.35,1.00,6.90,-2.08,-29.24
504853,-0.01,0.36,1.00,5.55,-2.01,-20.75
504869,-0.02,0.30,1.00,1.65,-1.46,2.26
504885,-0.02,0.26,1.00,0.31,-1.34,13.85
504901,-0.03,0.18,1.00,-0.49,-0.92,32.71
504917,-0.03,0.13,1.00,1.71,-2.01,39.49
504933,-0.03,0.13,1.00,2.81,-2.50,37.72
504949,-0.02,0.13,0.99,3.17,-1.95,30.33
504965,-0.02,0.12,1.01,3.54,-1.16,26.67
504981,-0.01,0.10,1.01,1.59,-1.22,26.92
504997,-0.01,0.04,1.00,-0.73,-2.20,29.36
505013,-0.03,0.03,1.01,-0.98,-1.95,27.83
505029,-0.03,0.04,1.00,-0.31,-1.28,24.90
505045,-0.01,0.08,1.00,3.85,-1.40,17.27
505061,0.02,0.08,0.99,5.25,-1.46,14.53
505077,0.02,0.06,1.00,4.21,-0.92,15.50
505093,0.04,0.02,1.00,4.21,-0.92,18.49
505109,0.00,-0.11,1.00,-5.25,-2.20,19.71
505125,-0.02,-0.09,1.00,0.85,-1.71,20.20
505141,-0.05,-0.08,1.01,4.94,-0.73,23.25
505157,-0.03,-0.09,1.01,1.83,-1.04,26.37
505173,-0.01,-0.12,1.00,0.43,-0.98,25.88
505189,-0.01,-0.17,1.01,2.87,0.00,26.98
505205,0.01,-0.23,1.01,-0.43,-0.85,26.31
505221,0.00,-0.28,1.02,0.31,-1.40,22.34
505237,0.04,-0.26,1.01,1.16,-1.34,14.95
505253,0.04,-0.27,1.01,0.31,-1.83,8.61
505269,0.03,-0.31,1.01,-0.24,-1.71,5.37
505285,0.01,-0.33,1.01,0.12,-1.83,-1.10
505301,0.03,-0.36,1.01,0.18,-2.14,-9.83
505317,0.03,-0.35,1.01,1.16,-2.14,-14.28
505333,0.02,-0.07,1.01,4.39,-1.89,-12.94
505349,0.01,-0.03,1.00,2.08,-1.83,2.44
505365,-0.01,-0.08,1.00,4.03,-1.53,4.15
505381,-0.01,-0.17,1.01,3.36,-1.40,9.95
505397,0.04,-0.21,1.01,1.40,-1.59,17.82
505413,0.04,-0.23,1.01,0.12,-1.59,19.78
505429,0.03,-0.23,1.01,-1.77,-1.83,17.03
505445,0.02,-0.22,1.01,0.61,-1.53,6.53
505461,0.01,-0.20,1.01,-0.18,-1.95,0.37
505477,0.01,-0.19,1.00,1.95,-2.20,-9.46
505493,0.01,-0.19,1.01,3.11,-1.95,-12.94
505509,0.01,-0.18,1.01,1.59,-1.89,-13.67
505525,0.01,-0.13,1.01,0.67,-2.38,-16.66
505541,0.01,-0.12,1.00,-0.24,-2.81,-19.04
505557,-0.00,-0.11,1.00,0.37,-3.11,-18.31
505573,-0.02,-0.07,1.00,2.69,-2.87,-16.91
505589,0.01,-0.08,1.01,3.05,-2.38,-12.70
505605,0.01,-0.08,1.01,0.85,-2.44,-8.12
505621,0.01,-0.09,1.00,-3.05,-2.01,-2.75
505637,0.00,-0.08,1.01,-2.44,-1.10,-4.82
505653,0.01,-0.06,1.04,-5.43,-1.89,-6.53
505669,-0.03,-0.05,0.98,9.89,-2.38,-6.96
505685,-0.03,0.01,1.01,5.13,-1.89,-9.89
505701,-0.04,0.00,1.00,3.42,-1.71,-10.62
505717,-0.06,-0.03,1.00,0.67,-2.87,-13.85
505733,-0.01,-0.03,0.99,-5.25,-2.81,-17.94
505749,-0.03,-0.00,0.99,-0.31,-1.53,-22.52
505765,-0.01,0.11,1.01,6.53,-1.89,-30.70
505781,0.00,0.15,1.00,3.54,-2.75,-31.31
505797,-0.01,0.27,1.00,5.13,-2.50,-29.85
505813,0.02,0.28,1.00,4.15,-1.16,-21.24
505829,0.03,0.29,1.01,0.31,-1.34,-3.17
505845,-0.02,0.26,1.00,1.10,-1.46,4.21
505861,-0.04,0.28,1.00,2.69,-1.89,6.77
505877,-0.03,0.30,1.00,3.54,-1.59,-0.24
505893,-0.00,0.34,0.99,4.76,-1.59,-3.42
505909,0.02,0.39,0.99,3.91,-1.53,-3.78
505925,-0.00,0.37,0.99,3.54,-1.83,14.22
505941,0.05,0.10,1.00,-4.64,-2.75,-1.77
505957,0.01,0.14,1.00,-3.54,-3.17,-11.54
505973,-0.01,0.18,1.01,-5.43,-2.93,-13.92
505989,-0.03,0.27,0.98,-3.91,-2.56,-18.07
506005,-0.03,0.36,1.01,11.17,-2.20,-21.97
506021,-0.04,0.36,1.01,11.35,-1.53,-20.75
506037,-0.01,0.26,1.00,5.19,-0.85,-9.40
506053,0.00,0.14,1.00,2.50,-1.40,7.20
506069,-0.02,0.10,1.00,1.34,-2.14,13.49
506085,-0.05,0.09,1.00,0.55,-2.81,19.23
506101,-0.02,0.15,1.00,0.55,-2.69,21.24
506117,0.00,0.16,0.99,-0.31,-2.14,20.63
506133,0.01,0.15,1.00,2.38,-1.46,21.18
506149,-0.02,0.06,1.00,0.55,-1.89,26.18
506165,-0.03,-0.01,1.00,-0.49,-2.08,29.54
506181,-0.02,-0.11,1.00,-1.46,-1.46,31.13
506197,-0.04,-0.10,1.00,-0.43,-1.28,22.83
506213,-0.03,-0.06,1.01,1.46,-1.59,16.85
506229,0.02,-0.03,1.00,2.38,-1.83,13.00
506245,0.03,-0.02,1.00,1.65,-1.65,16.36
506261,0.01,-0.02,1.01,0.55,-1.34,17.52
506277,0.00,-0.10,1.01,2.69,-1.22,15.38
506293,-0.01,-0.04,1.00,-0.92,-1.53,8.97
506309,-0.00,-0.00,1.01,0.18,-2.38,7.14
506325,0.07,0.02,1.00,-0.12,-1.89,12.45
506341,0.06,-0.00,1.01,1.46,-1.53,20.51
506357,0.01,0.00,1.00,2.20,-1.40,22.34
506373,-0.02,-0.04,1.00,3.78,-1.16,22.95
506389,-0.00,-0.11,1.00,5.43,-1.10,21.91
506405,-0.01,-0.12,1.00,4.94,-1.28,19.10
506421,0.00,-0.06,1.00,3.54,-1.04,15.87
506437,0.01,-0.05,1.00,-2.62,-1.34,17.82
506453,-0.00,-0.05,1.00,-1.28,-1.65,18.74
506469,-0.02,-0.06,1.01,0.49,-1.71,21.73
506485,-0.01,-0.18,1.01,0.67,-1.71,25.15
506501,-0.00,-0.23,1.01,1.40,-1.28,25.15
506517,0.02,-0.32,1.01,2.62,-1.16,18.98
506533,0.01,-0.36,1.01,2.26,-1.53,8.18
506549,0.00,-0.37,1.01,1.22,-1.77,2.69
506565,-0.00,-0.01,1.01,1.53,-2.08,-0.73
506581,0.01,-0.09,1.01,0.43,-1.40,10.44
506597,-0.00,-0.14,1.01,2.20,-0.98,18.37
506613,0.02,-0.22,1.00,2.01,-0.61,32.17
506629,0.04,-0.29,1.01,1.65,-0.55,37.66
506645,0.03,-0.32,1.01,0.37,-0.79,36.99
506661,-0.02,-0.30,1.01,-0.55,-1.89,27.71
506677,0.00,-0.26,1.00,-0.61,-2.32,9.52
506693,0.01,-0.24,1.00,0.61,-2.44,0.79
506709,-0.00,-0.16,1.00,3.42,-2.81,-11.23
506725,0.01,-0.13,1.01,1.16,-3.11,-12.57
506741,0.01,-0.11,1.01,-0.24,-2.69,-10.01
506757,0.02,-0.11,1.00,-1.40,-1.65,-4.27
506773,0.00,-0.09,1.00,1.53,-2.69,-0.98
506789,0.00,-0.08,1.00,2.44,-2.44,-1.77
506805,0.01,-0.09,1.00,1.28,-2.32,-2.26
506821,0.00,-0.09,1.00,3.78,-1.46,-2.32
506837,-0.05,-0.06,1.01,0.85,-1.65,-4.88
506853,-0.04,-0.00,1.02,-3.91,-2.44,-15.69
506869,-0.02,-0.04,0.93,6.77,-3.05,-16.36
506885,-0.01,0.06,1.01,4.82,-2.93,-13.73
506901,0.00,0.07,1.00,2.01,-1.71,-10.74
506917,-0.00,0.06,1.01,5.86,-1.95,-6.16
506933,-0.04,0.01,1.02,1.53,-1.59,-6.84
506949,-0.05,0.03,1.00,-2.87,-1.83,-14.16
506965,-0.03,0.05,1.00,-3.30,-2.26,-21.97
506981,-0.03,0.12,1.00,-6.16,-2.38,-23.38
506997,-0.02,0.17,0.97,-2.26,-2.50,-21.42
507013,-0.01,0.18,0.99,3.78,-2.20,-19.29
507029,0.01,0.13,1.00,7.93,-1.10,-13.00
507045,0.01,0.09,1.01,6.41,-1.40,-9.52
507061,0.00,0.09,1.01,3.54,-1.65,-10.80
507077,-0.00,0.13,1.00,-0.92,-1.95,-16.11
507093,0.01,0.18,0.99,-1.71,-2.44,-18.86
507109,0.00,0.22,0.99,0.37,-2.69,-19.90
507125,0.02,0.31,1.01,9.16,-3.11,-21.18
507141,0.02,0.37,1.01,8.24,-2.69,-15.38
507157,0.03,0.39,1.00,4.33,-2.38,-10.19
507173,0.02,0.19,1.03,1.89,-1.89,-0.55
507189,-0.02,0.12,1.01,-10.07,-1.83,-2.08
507205,-0.02,0.12,1.00,-13.85,-1.95,-13.00
507221,0.01,0.20,0.99,-3.05,-1.95,-33.14
507237,0.03,0.33,1.00,9.89,-2.08,-39.92
507253,0.02,0.37,1.00,11.05,-2.08,-37.78
507269,0.00,0.40,0.99,10.31,-1.71,-27.04
507285,-0.00,0.37,1.01,10.86,-1.59,-10.13
507301,-0.00,0.35,1.01,6.77,-1.53,0.00
507317,0.01,0.24,1.00,-0.92,-1.46,23.01
507333,-0.00,0.15,1.01,-1.53,-1.71,38.02
507349,-0.00,0.12,1.00,-2.62,-2.32,38.33
507365,-0.01,0.08,0.98,-2.87,-2.08,30.88
507381,-0.04,0.10,1.00,8.42,-1.28,21.73
507397,-0.04,0.09,1.01,5.74,-1.16,19.17
507413,-0.01,0.07,1.00,1.16,-2.32,22.46
507429,-0.01,0.03,1.00,-2.32,-1.71,30.58
507445,-0.01,0.00,1.00,-1.83,-0.98,33.26
507461,-0.03,-0.05,1.01,4.15,-0.79,32.41
507477,-0.03,-0.15,1.00,5.74,-0.61,24.23
507493,-0.05,-0.15,0.98,8.36,-1.22,17.52
507509,-0.04,-0.09,1.01,-5.80,-2.20,3.30
507525,0.00,-0.07,1.01,-1.59,-2.50,-2.08
507541,0.01,-0.04,1.01,2.93,-1.83,-0.73
507557,-0.02,-0.07,1.00,2.32,-1.83,2.32
507573,-0.04,-0.15,1.01,1.71,-1.71,1.34
507589,-0.04,-0.14,1.00,3.17,-1.59,1.89
507605,0.01,-0.13,1.01,2.62,-1.46,4.52
507621,0.02,-0.12,1.01,0.55,-1.34,10.07
507637,0.03,-0.12,1.01,0.85,-1.53,15.08
507653,0.02,-0.12,1.00,-0.85,-1.53,24.29
507669,0.01,-0.19,1.01,0.73,-1.28,27.71
507685,0.02,-0.24,1.01,1.89,-1.53,28.20
507701,0.02,-0.28,1.01,3.30,-1.59,24.60
507717,0.04,-0.37,1.01,0.67,-1.83,14.71
507733,0.04,-0.40,1.01,0.67,-2.08,9.58
507749,-0.01,-0.34,1.01,0.67,-1.95,1.77
507765,0.02,-0.08,1.00,3.72,-1.59,3.91
507781,0.00,-0.12,1.00,3.48,-1.22,11.17
507797,0.01,-0.23,1.01,2.38,-0.98,27.40
507813,0.05,-0.30,1.01,0.49,-1.04,32.71
507829,0.05,-0.32,1.01,0.49,-1.10,29.54
507845,0.01,-0.32,1.01,-1.04,-1.77,17.21
507861,0.01,-0.26,1.01,2.50,-1.53,2.50
507877,-0.01,-0.23,1.01,2.44,-1.95,-3.36
507893,0.03,-0.21,1.00,2.32,-2.69,-9.34
507909,0.03,-0.21,1.00,2.26,-2.32,-11.29
507925,0.00,-0.19,1.01,0.12,-2.38,-13.00
507941,-0.02,-0.14,1.01,-0.43,-2.62,-16.17
507957,-0.03,-0.11,1.00,1.04,-2.62,-15.87
507973,-0.05,-0.06,1.00,3.30,-2.32,-15.44
507989,-0.04,-0.02,1.01,0.12,-2.08,-13.61
508005,-0.02,-0.04,1.00,1.22,-1.71,-6.29
508021,0.00,-0.07,1.00,4.21,-1.59,-2.32
508037,-0.00,-0.10,1.02,0.00,-1.65,1.83
508053,-0.04,-0.06,1.01,4.21,-1.89,3.60
508069,-0.09,-0.02,1.01,2.08,-2.26,-3.05
508085,-0.09,0.01,1.00,0.73,-2.50,-16.05
508101,-0.09,-0.00,1.00,3.23,-2.50,-22.46
508117,-0.01,0.02,1.00,0.18,-2.62,-29.17
508133,0.00,0.07,1.01,3.48,-2.44,-29.54
508149,0.00,0.08,1.01,-2.99,-2.50,-28.93
508165,-0.03,0.07,0.97,-4.33,-1.40,-25.09
508181,-0.03,0.15,1.01,10.80,-1.89,-27.22
508197,-0.02,0.18,1.02,8.97,-1.95,-31.01
508213,0.00,0.26,1.00,2.38,-2.87,-29.36
508229,0.03,0.31,1.00,2.50,-2.69,-20.63
508245,0.02,0.33,1.00,0.92,-2.56,-15.99
508261,0.02,0.38,0.99,2.01,-2.62,-10.68
508277,0.05,0.40,0.99,1.34,-2.32,-7.32
508293,0.05,0.41,1.00,4.03,-1.83,-3.30
508309,0.02,0.42,1.00,2.62,-1.77,5.92
508325,-0.00,0.01,1.00,-1.83,-2.20,8.00
508341,0.00,0.02,1.01,-0.43,-2.08,2.20
508357,0.00,0.10,1.00,-5.49,-2.38,-1.53
508373,0.00,0.15,1.00,-4.70,-2.44,-18.19
508389,0.01,0.18,0.99,-2.44,-2.38,-26.86
508405,0.02,0.33,0.99,8.00,-1.89,-33.87
508421,0.04,0.36,1.00,8.67,-1.77,-28.93
508437,0.03,0.34,0.99,4.88,-1.77,-20.57
508453,0.02,0.30,0.99,2.81,-1.59,0.92
508469,0.01,0.25,1.00,0.18,-1.46,16.78
508485,0.01,0.24,1.00,0.49,-1.22,22.46
508501,0.01,0.21,1.00,-1.16,-1.10,32.35
508517,-0.01,0.18,1.01,1.10,-1.77,37.11
508533,-0.00,0.15,1.01,0.61,-2.26,36.80
508549,0.01,0.06,0.99,-6.16,-2.56,35.34
508565,-0.01,0.01,1.00,5.31,-1.53,32.10
508581,-0.05,0.03,1.01,5.25,-1.34,26.92
508597,-0.07,0.06,1.00,0.79,-1.89,16.78
508613,-0.02,0.07,1.00,0.55,-1.83,15.26
508629,-0.01,0.05,1.01,0.85,-1.59,15.81
508645,-0.03,-0.03,1.02,4.58,-1.28,13.24
508661,-0.07,-0.05,1.00,5.19,-1.28,2.56
508677,-0.08,-0.03,1.00,4.64,-1.59,-2.87
508693,-0.07,0.03,1.02,1.95,-2.32,-6.71
508709,-0.04,-0.00,1.00,-3.48,-2.32,5.31
508725,-0.03,0.01,0.99,-0.37,-1.77,13.79
508741,-0.03,-0.01,1.01,1.89,-1.10,31.80
508757,-0.04,-0.14,1.01,0.00,-1.04,43.33
508773,-0.02,-0.18,1.01,1.89,-0.79,45.29
508789,0.00,-0.29,1.02,3.42,-0.67,38.82
508805,0.03,-0.31,1.01,5.55,-1.34,21.85
508821,0.03,-0.32,1.01,1.65,-1.65,12.82
508837,0.02,-0.29,1.01,1.16,-1.77,-2.01
508853,0.02,-0.25,1.00,0.55,-2.01,-12.39
508869,0.03,-0.24,1.01,1.34,-2.26,-15.87
508885,0.03,-0.25,1.01,2.62,-2.14,-18.25
508901,0.05,-0.30,1.01,2.38,-2.08,-12.33
508917,0.06,-0.32,1.01,1.95,-2.14,-8.24
508933,0.01,-0.00,1.01,3.60,-1.65,0.55
508949,-0.04,-0.12,1.00,2.56,-1.40,11.72
508965,-0.01,-0.17,1.01,2.81,-1.28,19.78
508981,0.03,-0.24,1.01,0.85,-1.10,35.16
508997,0.04,-0.27,1.01,-0.79,-1.04,42.36
509013,0.05,-0.30,1.01,-0.37,-0.92,41.02
509029,0.04,-0.29,1.01,-0.61,-1.22,30.03
509045,0.03,-0.28,1.01,-1.65,-1.77,15.69
509061,-0.00,-0.23,1.00,-0.55,-2.08,9.95
509077,-0.02,-0.16,1.00,5.37,-2.44,-1.34
509093,-0.00,-0.14,1.02,5.25,-2.14,-9.95
509109,0.01,-0.16,1.00,-0.18,-2.32,-10.93
509125,-0.01,-0.12,1.00,4.52,-2.50,-12.63
509141,-0.02,-0.11,1.00,3.60,-2.26,-14.95
509157,-0.03,-0.08,1.01,0.98,-2.14,-15.93
509173,-0.04,-0.05,1.01,-4.09,-2.32,-13.18
509189,-0.05,-0.04,1.00,-1.65,-2.14,-10.74
509205,-0.06,-0.02,1.01,1.59,-1.71,-6.47
509221,-0.03,0.01,0.98,3.60,-1.89,1.10
509237,-0.02,0.00,0.98,6.77,-1.65,3.05
509253,0.02,0.05,1.01,-0.12,-1.89,1.22
509269,0.01,0.03,1.01,1.34,-2.14,-3.48
509285,0.01,0.05,1.01,-2.56,-2.32,-5.49
509301,-0.02,0.04,0.98,-0.61,-2.08,-3.48
509317,0.02,0.11,1.02,0.18,-1.65,-3.72
509333,0.02,0.09,1.01,-6.59,-1.77,-4.94
509349,-0.02,0.07,0.98,-9.83,-1.65,-9.46
509365,-0.01,0.07,0.98,4.15,-2.01,-17.33
509381,-0.01,0.09,0.99,11.29,-2.32,-21.42
509397,-0.03,0.13,1.02,15.20,-1.53,-29.36
509413,-0.01,0.14,1.01,5.00,-2.75,-31.37
509429,0.01,0.14,1.01,1.89,-2.62,-29.79
509445,0.02,0.18,1.00,0.67,-2.56,-28.69
509461,0.02,0.27,0.98,2.26,-3.17,-32.23
509477,0.00,0.32,0.98,5.07,-2.93,-34.36
509493,0.01,0.41,0.99,4.94,-2.62,-32.90
509509,0.02,0.45,1.00,3.78,-2.38,-18.92
509525,0.04,0.38,1.00,3.17,-2.20,-9.95
509541,-0.00,0.03,1.00,-4.52,-1.95,1.95
509557,-0.02,0.12,1.00,-3.17,-2.20,-9.77
509573,-0.03,0.15,1.00,-1.89,-2.26,-19.71
509589,-0.02,0.25,1.01,6.65,-2.44,-34.67
509605,-0.01,0.28,1.00,1.40,-2.44,-38.76
509621,0.01,0.31,1.00,2.20,-2.26,-36.19
509637,0.04,0.33,1.00,3.11,-1.95,-25.02
509653,0.01,0.34,1.00,5.68,-1.59,-10.38
509669,-0.01,0.33,1.00,4.27,-1.22,-2.93
509685,-0.02,0.24,1.00,0.61,-1.10,8.67
509701,-0.01,0.19,1.00,1.22,-1.65,13.85
509717,-0.00,0.18,1.01,2.44,-1.89,14.71
509733,0.01,0.15,0.98,-5.13,-3.23,18.19
509749,-0.00,0.16,1.00,3.30,-1.89,26.79
509765,-0.01,0.14,1.00,1.59,-1.65,31.68
509781,-0.04,0.12,1.01,3.60,-1.40,39.79
509797,-0.06,0.04,1.00,0.55,-1.34,43.03
509813,-0.06,-0.03,1.00,-0.24,-1.22,43.46
509829,-0.07,-0.07,1.01,1.71,-0.67,42.60
509845,-0.05,-0.12,1.00,0.55,-1.53,38.88
509861,-0.04,-0.11,1.00,2.20,-1.53,37.11
509877,-0.01,-0.11,1.02,-0.31,-1.65,31.62
509893,-0.01,-0.20,1.00,0.61,-1.22,27.89
509909,0.00,-0.20,1.01,7.02,-1.04,25.88
509925,-0.00,-0.18,1.00,3.48,-1.53,19.78
509941,-0.05,-0.13,1.00,-2.62,-1.77,9.16
509957,-0.05,-0.12,1.00,-2.08,-1.83,7.57
509973,-0.01,-0.12,1.01,5.00,-1.40,19.29
509989,0.00,-0.22,1.01,2.69,-0.92,28.20
510005,0.01,-0.26,1.01,2.32,-1.04,29.05