time,accel_x,accel_y,accel_z,gyro_x,gyro_y,gyro_z
470022,-0.02,0.29,1.00,16.54,-1.53,8.54
470037,-0.01,0.25,1.00,14.04,-1.65,17.94
470053,-0.00,0.16,1.00,2.01,-1.89,32.78
470069,-0.02,0.12,1.01,-11.29,-1.34,39.92
470085,-0.02,0.11,1.00,-12.27,-1.40,38.33
470101,-0.02,0.13,0.99,2.56,-2.44,29.66
470117,-0.01,0.13,1.00,14.34,-3.36,20.75
470133,0.01,0.12,0.99,16.85,-3.42,19.84
470149,0.03,0.09,1.01,8.73,-1.83,23.32
470165,0.03,0.07,1.01,1.53,-2.20,26.86
470181,0.04,0.06,1.00,0.98,-2.44,27.71
470197,0.05,0.03,1.00,2.32,-1.95,26.25
470213,0.01,0.03,1.01,4.21,-0.73,21.48
470229,-0.00,0.01,1.01,3.72,-1.53,18.43
470245,0.01,-0.04,1.00,1.59,-1.83,18.01
470261,-0.06,-0.11,1.02,1.65,-1.10,18.37
470277,-0.03,0.00,1.02,5.74,-1.34,16.85
470293,-0.09,-0.05,0.99,-3.97,-1.95,15.63
470309,-0.04,-0.06,1.01,9.52,-0.92,19.29
470325,-0.04,-0.06,1.01,11.72,-0.43,22.28
470341,-0.01,-0.13,1.00,3.60,-0.67,26.79
470357,-0.01,-0.20,1.01,1.65,-1.34,30.94
470373,-0.02,-0.21,1.01,3.05,-0.67,33.87
470389,-0.04,-0.24,1.01,-0.92,-0.18,34.42
470405,-0.00,-0.27,1.02,4.58,-0.98,27.71
470421,0.01,-0.30,1.01,2.99,-1.10,23.25
470437,0.04,-0.35,1.01,2.99,-1.16,14.10
470453,0.05,-0.40,1.01,1.34,-1.95,4.09
470469,0.05,-0.41,1.01,-0.18,-2.01,0.18
470485,0.10,-0.26,1.00,-1.95,-2.32,-3.91
470501,-0.01,-0.11,1.00,0.31,-1.95,7.14
470517,-0.01,-0.13,1.01,2.44,-1.40,13.37
470533,0.02,-0.21,1.01,3.54,-1.10,25.21
470549,0.04,-0.26,1.01,-0.98,-1.46,35.22
470565,0.04,-0.27,1.01,-2.56,-1.46,35.58
470581,0.03,-0.27,1.01,-0.12,-1.22,27.71
470597,-0.00,-0.25,1.00,-0.12,-1.34,14.59
470613,-0.01,-0.25,1.00,0.73,-1.77,7.20
470629,-0.00,-0.23,1.01,3.60,-2.26,-5.25
470645,-0.01,-0.18,1.00,0.31,-3.17,-12.15
470661,-0.00,-0.17,1.01,-1.65,-3.23,-13.12
470677,-0.01,-0.15,1.00,-2.50,-2.50,-15.81
470693,-0.02,-0.13,1.01,0.43,-2.38,-18.25
470709,-0.03,-0.10,1.01,0.00,-2.81,-18.74
470725,-0.03,-0.07,1.00,-0.12,-2.38,-18.92
470741,-0.02,-0.05,1.00,1.95,-2.14,-20.14
470757,-0.03,-0.04,1.01,1.10,-2.20,-20.57
470773,-0.06,-0.06,0.99,-2.26,-2.44,-20.63
470789,-0.06,0.03,0.98,8.00,-2.81,-17.70
470805,0.00,0.02,1.01,4.52,-1.71,-15.93
470821,-0.03,0.04,1.01,2.69,-2.14,-9.22
470837,-0.04,0.03,1.01,-4.94,-1.77,-9.28
470853,0.01,0.02,0.99,-8.97,-1.46,-8.18
470869,-0.01,0.05,0.99,-5.00,-1.22,-4.94
470885,-0.03,0.09,1.02,-5.43,-2.08,-7.87
470901,-0.03,0.05,1.00,-5.49,-2.32,-10.50
470917,-0.02,0.02,0.99,-1.04,-0.49,-16.78
470933,-0.01,0.03,1.00,0.06,0.00,-24.48
470949,-0.01,0.09,1.01,-3.42,-0.98,-27.10
470965,0.03,0.17,0.99,-2.87,-1.22,-28.81
470981,0.02,0.19,0.99,0.49,-1.71,-27.16
470997,0.00,0.17,1.01,3.30,-3.54,-22.95
471013,-0.02,0.17,0.99,2.99,-1.83,-20.69
471029,-0.02,0.20,1.01,3.05,-2.01,-18.62
471045,0.01,0.25,1.00,-3.85,-2.75,-14.40
471061,0.01,0.35,0.99,1.10,-2.20,-9.77
471077,0.02,0.38,0.98,6.77,-2.38,-6.84
471093,0.03,0.40,1.00,19.65,-1.95,-2.26
471109,-0.00,0.09,1.00,8.85,-2.20,-3.66
471125,0.00,0.09,1.01,4.88,-2.44,-10.19
471141,-0.03,0.19,1.00,-1.16,-2.38,-17.03
471157,-0.03,0.32,0.99,0.49,-1.95,-19.35
471173,-0.01,0.37,0.99,4.15,-1.59,-17.94
471189,0.03,0.39,0.99,15.32,-1.53,-11.60
471205,0.03,0.34,1.01,16.54,-1.40,0.24
471221,-0.01,0.28,0.99,6.53,-1.04,7.57
471237,-0.02,0.17,1.00,0.49,-1.59,23.50
471253,-0.01,0.10,0.99,-3.78,-1.53,29.91
471269,-0.01,0.09,1.00,-5.37,-1.46,29.30
471285,-0.01,0.10,1.02,0.37,-1.71,21.42
471301,-0.01,0.09,1.00,5.98,-2.44,12.27
471317,0.00,0.07,1.00,6.41,-2.75,10.80
471333,0.00,0.02,1.00,1.83,-2.20,11.78
471349,-0.03,0.02,1.01,-0.85,-1.65,13.61
471365,-0.03,0.02,1.00,-3.85,-2.20,15.14
471381,-0.02,0.07,1.00,-0.98,-2.50,19.90
471397,-0.01,0.08,1.00,3.60,-0.98,24.05
471413,-0.00,0.03,1.00,4.46,-0.18,26.49
471429,0.01,-0.05,1.01,6.04,-0.43,29.24
471445,0.01,-0.05,1.00,2.32,-1.83,25.88
471461,0.02,-0.07,1.00,0.12,-1.40,24.23
471477,0.05,-0.01,1.01,1.65,-1.16,19.71
471493,-0.02,-0.04,1.00,-1.77,-2.26,16.78
471509,-0.01,-0.01,1.01,2.20,-2.75,16.05
471525,-0.03,-0.06,1.01,3.30,-1.59,18.37
471541,-0.02,-0.11,1.01,2.93,-1.04,19.23
471557,-0.01,-0.14,1.01,0.98,-0.92,17.58
471573,-0.01,-0.18,1.01,1.53,-1.71,17.88
471589,-0.01,-0.21,1.01,0.61,-1.22,13.73
471605,-0.02,-0.21,1.01,-0.98,-1.28,10.68
471621,-0.01,-0.17,1.00,-1.28,-1.83,7.69
471637,-0.01,-0.18,1.01,0.98,-1.95,3.05
471653,0.00,-0.19,1.01,3.11,-1.77,0.73
471669,0.01,-0.27,1.01,2.20,-1.65,0.43
471685,0.02,-0.35,1.01,1.22,-1.53,5.80
471701,0.05,-0.37,1.01,1.04,-1.59,8.12
471717,0.03,-0.15,0.99,1.53,-1.59,7.63
471733,-0.00,-0.13,1.00,2.69,-1.34,15.01
471749,0.00,-0.16,1.01,2.56,-1.10,22.16
471765,0.02,-0.23,1.01,1.46,-1.22,31.43
471781,0.03,-0.30,1.01,1.16,-1.22,30.40
471797,0.01,-0.32,1.01,0.85,-1.22,26.37
471813,0.04,-0.34,1.01,0.55,-1.53,16.66
471829,0.02,-0.33,1.01,1.16,-1.83,3.36
471845,-0.00,-0.30,1.00,0.55,-2.32,-5.00
471861,-0.02,-0.21,1.01,-1.34,-3.54,-23.32
471877,-0.01,-0.17,1.00,-0.98,-3.72,-34.97
471893,-0.00,-0.09,0.99,2.32,-2.87,-36.99
471909,0.01,-0.07,1.01,6.29,-2.69,-32.17
471925,0.01,-0.09,1.01,-0.18,-2.62,-20.26
471941,-0.03,-0.07,1.01,-0.67,-1.89,-16.05
471957,-0.01,-0.02,1.01,-1.77,-1.83,-12.51
471973,0.02,0.00,1.01,-1.10,-2.14,-1.28
471989,0.07,0.07,1.02,9.16,-2.01,9.64
472005,0.04,0.07,0.99,0.98,-1.16,20.87
472021,0.01,0.03,1.00,-3.11,-2.20,22.71
472037,-0.04,-0.06,1.01,0.61,-2.81,11.90
472053,-0.05,-0.07,1.00,-2.99,-1.65,-6.90
472069,-0.05,-0.01,1.00,0.67,-1.22,-14.95
472085,0.00,0.09,1.02,0.98,-1.53,-24.72
472101,0.01,0.15,0.99,-5.74,-2.44,-22.34
472117,0.01,0.13,0.97,-4.27,-2.75,-19.17
472133,-0.01,0.13,1.00,3.17,-1.34,-19.47
472149,-0.03,0.11,1.01,-0.31,-1.16,-26.31
472165,-0.04,0.13,1.01,-1.46,-1.40,-29.24
472181,-0.01,0.20,1.00,2.69,-2.32,-33.08
472197,-0.00,0.28,1.00,3.85,-2.87,-29.11
472213,-0.00,0.29,0.99,4.46,-2.99,-24.84
472229,-0.01,0.25,1.00,6.77,-2.62,-13.43
472245,-0.00,0.22,1.00,4.46,-2.08,-2.08
472261,-0.02,0.22,1.01,0.61,-2.08,1.71
472277,-0.04,0.23,0.99,-3.23,-2.08,4.21
472293,-0.05,0.29,0.99,2.26,-2.14,1.71
472309,-0.03,0.22,1.00,8.06,-2.14,-0.31
472325,-0.02,0.10,1.00,4.70,-2.08,-9.89
472341,-0.02,0.17,1.01,6.41,-2.32,-24.84
472357,-0.02,0.21,1.00,3.91,-2.32,-25.76
472373,-0.05,0.25,1.00,-0.31,-2.26,-17.76
472389,-0.05,0.30,1.00,-3.17,-2.01,-7.75
472405,-0.05,0.31,0.99,-1.16,-1.89,-5.31
472421,-0.03,0.27,1.00,7.51,-1.53,1.59
472437,-0.00,0.20,1.00,4.70,-1.04,12.39
472453,0.01,0.16,1.00,3.11,-0.98,16.91
472469,0.01,0.09,1.01,0.73,-1.53,20.69
472485,-0.02,0.08,1.01,-2.01,-1.65,18.25
472501,-0.02,0.09,1.01,-2.20,-2.14,17.33
472517,-0.04,0.13,1.00,-0.98,-2.56,17.21
472533,-0.01,0.12,0.99,2.20,-2.26,16.85
472549,0.00,0.09,0.99,3.48,-1.65,18.49
472565,0.04,-0.00,1.01,4.82,-1.22,22.77
472581,0.01,-0.03,1.00,3.42,-1.59,20.94
472597,-0.02,-0.02,1.00,0.92,-2.20,16.78
472613,0.01,0.00,1.01,-1.83,-2.32,9.89
472629,0.02,0.04,1.00,0.55,-1.46,11.47
472645,0.01,0.05,1.01,3.05,-1.83,13.55
472661,0.01,-0.00,1.00,2.81,-1.40,19.17
472677,0.04,-0.08,1.00,2.26,-0.73,23.99
472693,0.02,-0.11,1.01,5.07,-0.43,23.86
472709,-0.02,-0.06,1.00,-3.48,-1.28,20.39
472725,0.03,0.00,1.00,-1.40,-2.26,23.56
472741,0.02,0.00,1.00,-2.14,-1.71,26.92
472757,-0.01,-0.03,1.01,3.30,-1.04,29.48
472773,0.00,-0.14,1.01,0.12,-1.04,25.51
472789,0.03,-0.18,0.99,0.92,-1.10,24.35
472805,0.04,-0.20,1.00,4.33,-0.92,16.36
472821,-0.03,-0.10,1.02,4.21,-1.65,0.06
472837,-0.02,-0.07,1.01,0.67,-1.59,-6.16
472853,-0.01,-0.06,1.00,1.40,-2.01,-9.58
472869,-0.01,-0.06,1.00,2.81,-2.01,-8.67
472885,-0.00,-0.08,1.00,2.26,-1.71,-9.34
472901,0.04,-0.16,1.01,2.99,-1.65,-12.63
472917,0.04,-0.18,1.00,2.93,-1.77,-12.94
472933,0.02,-0.16,1.01,1.04,-1.83,-9.83
472949,0.02,-0.17,1.01,-2.08,-2.26,2.81
472965,0.03,-0.16,1.01,-2.44,-1.95,16.05
472981,0.00,-0.21,1.00,-1.34,-1.83,18.43
472997,0.00,-0.29,1.01,0.73,-1.59,14.71
473013,-0.02,-0.21,1.00,6.29,-1.40,4.21
473029,0.02,-0.12,1.01,6.84,-1.16,8.48
473045,0.02,-0.28,1.01,4.70,-0.49,27.28
473061,0.01,-0.32,1.01,1.65,-0.73,35.28
473077,-0.02,-0.30,1.02,-6.96,-1.77,31.56
473093,-0.00,-0.31,1.00,-11.35,-1.16,14.10
473109,-0.02,-0.29,1.00,-7.81,-1.53,4.88
473125,-0.01,-0.25,1.00,-1.83,-1.89,-12.51
473141,0.01,-0.24,1.00,6.29,-2.50,-19.29
473157,-0.00,-0.23,1.01,8.85,-2.20,-19.41
473173,-0.02,-0.21,1.02,5.86,-2.26,-16.97
473189,-0.05,-0.18,1.00,-1.83,-2.75,-14.53
473205,-0.02,-0.14,1.00,-3.54,-3.11,-14.28
473221,0.03,-0.09,0.98,-1.04,-2.20,-16.85
473237,0.04,-0.06,0.99,9.03,-2.56,-14.71
473253,0.05,-0.05,1.01,14.10,-2.44,-10.56
473269,-0.01,0.01,1.02,8.18,-0.85,-0.12
473285,-0.02,0.02,1.04,-11.84,-2.56,10.68
473301,-0.02,0.05,0.97,-3.60,-2.81,15.20
473317,0.00,0.11,1.02,10.62,-2.01,12.88
473333,0.04,0.03,1.00,4.03,-1.71,11.60
473349,0.01,0.02,1.01,4.09,-2.50,13.12
473365,-0.05,0.05,1.02,-9.46,-1.83,11.35
473381,-0.02,0.06,1.00,-11.23,-0.79,1.95
473397,-0.01,0.04,0.97,-9.95,-0.92,-3.91
473413,-0.00,0.09,0.99,2.14,-1.71,-11.47
473429,0.02,0.12,1.00,3.72,-2.20,-16.66
473445,0.02,0.12,0.99,4.27,-1.22,-17.52
473461,0.02,0.12,1.01,5.74,-0.98,-16.36
473477,-0.00,0.15,1.00,2.75,-0.79,-19.53
473493,0.00,0.19,1.00,2.26,-1.34,-22.16
473509,0.03,0.24,1.00,4.76,-2.87,-22.64
473525,0.05,0.24,1.00,4.94,-2.93,-16.60
473541,0.03,0.23,1.00,3.78,-2.99,-13.00
473557,-0.01,0.21,1.00,4.15,-2.81,-6.90
473573,-0.01,0.19,1.01,-0.98,-2.26,-0.43
473589,-0.03,0.19,1.00,-4.09,-2.01,0.79
473605,-0.04,0.24,0.98,-5.62,-1.95,-0.24
473621,0.02,0.15,1.01,10.44,-2.01,-3.05
473637,-0.01,0.09,1.01,8.36,-1.95,-2.08
473653,-0.01,0.08,1.00,5.55,-2.14,-20.63
473669,0.01,0.19,1.01,6.59,-2.50,-32.71
473685,0.01,0.23,1.00,2.69,-2.44,-34.30
473701,-0.01,0.32,0.99,2.69,-2.14,-26.98
473717,0.01,0.36,1.00,6.35,-1.89,-12.51
473733,0.02,0.34,1.00,5.37,-1.59,-4.27
473749,0.01,0.27,1.00,4.76,-1.34,9.64
473765,0.00,0.20,1.00,2.38,-1.10,16.05
473781,-0.00,0.17,1.01,1.89,-1.53,17.52
473797,-0.00,0.11,1.00,0.31,-1.59,21.12
473813,-0.01,0.09,1.00,0.43,-2.93,21.97
473829,-0.01,0.08,1.00,-0.85,-3.36,21.42
473845,0.01,0.02,1.00,-0.49,-1.83,19.17
473861,0.01,-0.04,1.01,2.26,-1.59,13.61
473877,-0.03,-0.02,1.01,0.85,-2.26,8.91
473893,-0.06,0.04,1.00,-3.23,-2.87,1.95
473909,-0.04,0.10,1.01,-0.31,-2.14,6.77
473925,-0.03,0.13,1.00,1.10,-1.40,13.24
473941,-0.02,0.09,1.01,4.76,-1.10,28.20
473957,-0.02,-0.02,1.00,3.48,-0.67,41.44
473973,-0.01,-0.08,1.00,3.30,-0.18,43.52
473989,0.04,-0.10,1.03,8.18,0.12,34.42
474005,0.02,-0.10,1.01,-2.93,-1.46,18.55
474021,0.02,-0.04,1.02,2.56,-2.81,13.18
474037,0.01,-0.01,0.99,0.06,-1.83,13.85
474053,-0.02,-0.02,1.02,-0.06,-1.40,14.53
474069,-0.03,-0.12,1.01,1.89,-1.10,12.76
474085,0.02,-0.21,1.01,5.68,-0.92,8.18
474101,0.03,-0.20,1.01,3.97,-0.98,-3.11
474117,-0.04,-0.17,1.01,2.20,-1.59,-11.41
474133,-0.00,-0.12,1.01,-0.85,-2.32,-17.82
474149,0.01,-0.13,1.00,-1.59,-2.44,-17.58
474165,0.01,-0.15,1.01,3.11,-2.38,-15.44
474181,0.04,-0.19,1.01,1.22,-2.26,-13.79
474197,0.05,-0.23,1.01,0.92,-2.32,-13.61
474213,0.04,-0.26,1.01,0.67,-2.26,-13.67
474229,0.01,-0.27,1.01,-0.73,-2.26,-16.24
474245,0.01,-0.26,1.01,-2.01,-2.32,-15.44
474261,0.00,-0.03,1.00,-0.55,-1.95,-2.99
474277,-0.04,-0.14,1.00,1.65,-1.28,9.28
474293,-0.02,-0.20,1.00,2.99,-0.92,17.46
474309,0.03,-0.27,1.01,3.30,-0.43,30.21
474325,0.03,-0.29,1.02,-4.15,-0.12,28.63
474341,-0.03,-0.29,1.01,-12.51,-1.59,20.81
474357,0.00,-0.25,0.98,-13.85,-1.65,-0.73
474373,0.01,-0.19,0.99,2.56,-2.26,-18.37
474389,0.04,-0.16,1.00,9.34,-2.14,-23.25
474405,0.05,-0.13,1.02,10.50,-1.71,-24.66
474421,0.05,-0.12,1.01,-3.91,-1.77,-21.42
474437,0.05,-0.12,1.01,-7.57,-1.59,-19.41
474453,0.02,-0.10,0.99,-9.52,-2.81,-16.54
474469,-0.00,-0.03,1.01,-5.80,-2.44,-12.70
474485,-0.01,-0.02,1.00,-4.88,-2.01,-9.03
474501,0.01,-0.02,1.00,1.04,-2.08,1.95
474517,-0.00,-0.06,1.02,-0.67,-1.53,8.00
474533,0.01,-0.11,0.96,-1.89,0.00,9.28
474549,0.01,-0.06,1.00,8.18,0.43,11.35
474565,0.03,-0.08,0.99,3.91,0.49,6.59
474581,0.01,-0.06,1.00,4.46,1.16,2.99
474597,-0.03,-0.08,0.98,0.92,-0.43,-3.85
474613,-0.07,-0.01,1.01,1.04,-5.19,-11.78
474629,-0.05,-0.06,0.97,-8.00,-7.26,-15.63
474645,-0.03,0.03,0.98,-5.43,-7.26,-20.51
474661,0.01,0.11,0.99,5.25,-0.67,-23.13
474677,0.03,0.11,0.99,7.75,0.24,-20.26
474693,0.01,0.10,1.01,11.05,-0.85,-8.48
474709,-0.03,0.07,1.01,-1.10,-0.61,-0.98
474725,-0.02,0.04,1.00,-4.82,0.12,-0.18
474741,0.01,0.01,1.01,-3.23,4.21,-5.68
474757,-0.01,-0.00,1.00,0.18,8.12,-16.72
474773,-0.03,0.01,0.99,2.93,8.73,-23.07
474789,-0.07,0.09,0.98,7.57,4.58,-33.51
474805,-0.05,0.13,0.99,10.50,-2.20,-34.30
474821,-0.04,0.15,0.99,12.33,-3.97,-31.19
474837,-0.01,0.15,1.01,11.84,-4.27,-21.73
474853,0.00,0.15,1.01,7.57,-2.56,-11.78
474869,-0.00,0.13,1.00,6.41,-1.83,-7.14
474885,-0.04,0.15,0.99,1.77,-3.78,-0.37
474901,-0.04,0.17,0.98,-3.48,-8.73,0.49
474917,-0.04,0.17,0.98,-4.09,-11.41,-0.49
474933,-0.02,0.20,0.99,-0.12,-15.26,-3.60
474949,-0.01,0.33,1.02,22.03,-3.54,-6.96
474965,0.01,0.26,1.04,14.89,-2.26,-6.04
474981,-0.01,0.10,0.99,-3.66,-2.08,-12.27
474997,-0.03,0.23,1.00,3.48,-2.38,-23.99
475013,-0.04,0.29,1.01,3.72,-2.26,-25.09
475029,-0.01,0.33,1.00,-0.67,-1.83,-18.49
475045,-0.00,0.31,0.99,11.11,-1.04,-4.58
475061,0.02,0.32,1.03,17.64,-1.59,2.75
475077,0.03,0.19,0.99,1.89,-0.67,18.98
475093,0.01,0.15,1.00,-0.12,-1.46,28.81
475109,-0.03,0.10,1.00,-1.89,-1.71,30.52
475125,-0.02,0.10,1.00,-1.71,-1.53,30.70
475141,-0.02,0.11,1.00,-2.32,-1.16,28.63
475157,-0.02,0.11,1.00,0.49,-1.16,27.04
475173,-0.02,0.10,1.00,4.27,-1.83,23.13
475189,-0.02,0.08,1.01,4.82,-1.95,22.28
475205,-0.02,0.05,0.99,2.08,-2.38,22.95
475221,-0.04,0.06,1.00,0.55,-1.77,25.76
475237,-0.04,0.04,1.01,-0.06,-1.34,27.16
475253,-0.03,0.03,1.01,3.85,-1.22,29.72
475269,-0.01,-0.01,1.01,4.39,-1.65,29.97
475285,-0.00,-0.03,1.00,2.20,-0.73,29.66
475301,0.00,-0.07,1.01,-1.77,-1.04,27.53
475317,0.00,-0.06,1.01,-0.37,-2.20,24.29
475333,-0.02,-0.05,1.00,-0.24,-2.20,23.13
475349,-0.05,-0.02,1.00,2.50,-1.40,20.51
475365,-0.02,0.01,1.01,9.40,-0.67,18.80
475381,-0.02,-0.02,1.00,5.19,-0.31,19.71
475397,0.02,-0.08,1.01,3.30,-1.53,26.43
475413,0.04,-0.12,1.01,0.37,-1.22,34.85
475429,0.02,-0.14,1.01,-1.46,-1.59,35.58
475445,-0.00,-0.09,1.01,-2.08,-1.95,28.63
475461,-0.02,-0.08,1.00,-0.18,-1.59,21.00
475477,-0.02,-0.09,1.00,2.81,-1.40,16.85
475493,0.01,-0.15,1.00,3.97,-1.28,11.90
475509,0.03,-0.20,1.01,4.52,-0.98,10.93
475525,0.02,-0.25,1.01,1.59,-1.10,7.75
475541,0.02,-0.26,1.01,-0.73,-1.89,-2.44
475557,0.02,-0.24,1.01,-1.28,-2.26,-9.89
475573,0.01,-0.25,1.00,-1.77,-2.32,-11.60
475589,0.04,-0.23,1.01,1.10,-2.20,-10.50
475605,0.01,-0.04,1.00,3.36,-1.46,-2.32
475621,-0.03,-0.09,1.01,4.21,-1.16,3.60
475637,0.01,-0.20,1.01,2.75,-1.40,11.84
475653,0.03,-0.23,1.01,0.79,-1.16,17.58
475669,0.03,-0.25,1.01,-1.65,-1.16,17.94
475685,0.04,-0.27,1.01,-8.67,-1.46,11.72
475701,0.02,-0.24,1.00,-11.47,-1.71,-0.31
475717,0.00,-0.21,1.00,-9.83,-2.20,-6.53
475733,-0.00,-0.24,0.99,0.31,-2.26,-15.99
475749,0.01,-0.16,1.00,-0.55,-2.87,-16.78
475765,0.01,-0.14,1.01,-0.67,-1.95,-17.21
475781,0.00,-0.12,1.00,-1.28,-1.71,-16.54
475797,-0.00,-0.09,1.01,-1.16,-2.50,-15.20
475813,0.01,-0.10,1.00,-2.50,-2.50,-14.22
475829,0.03,-0.12,1.00,-2.32,-1.53,-11.17
475845,-0.02,-0.09,0.96,3.78,-0.49,-9.77
475861,-0.05,-0.04,1.03,8.85,-1.53,-8.91
475877,-0.04,-0.03,1.01,6.16,-2.62,-9.95
475893,0.01,-0.03,1.00,0.55,-1.53,-12.33
475909,0.01,-0.06,0.98,0.98,-1.46,-12.15
475925,-0.00,-0.05,1.05,-1.34,-2.38,-13.85
475941,-0.01,-0.00,0.98,-2.38,-2.69,-14.71
475957,-0.00,0.05,1.01,-0.06,-2.14,-15.63
475973,0.00,0.08,1.00,2.69,-0.67,-16.30
475989,0.01,0.07,1.01,0.24,-1.40,-12.82
476005,0.00,0.05,1.00,-0.92,-1.22,-11.11
476021,-0.03,0.02,0.99,0.67,-0.79,-10.25
476037,-0.01,0.04,1.00,1.46,-2.26,-13.55
476053,0.01,0.05,1.01,1.71,-2.26,-16.42
476069,0.01,0.06,1.01,0.98,-1.34,-20.39
476085,-0.00,0.07,1.01,1.53,-2.01,-22.22
476101,-0.00,0.09,1.00,2.08,-2.01,-21.67
476117,-0.02,0.11,1.00,1.04,-3.23,-19.71
476133,-0.02,0.11,1.01,1.04,-2.50,-18.37
476149,-0.00,0.13,1.00,0.67,-1.95,-18.01
476165,-0.00,0.12,1.00,0.73,-1.95,-14.47
476181,-0.01,0.11,1.00,1.28,-2.56,-9.64
476197,-0.02,0.12,1.01,1.22,-2.81,-8.67
476213,-0.02,0.15,1.00,1.46,-2.32,-9.95
476229,-0.03,0.17,1.00,2.38,-1.95,-11.84
476245,-0.05,0.28,1.00,4.46,-1.83,-12.45
476261,-0.05,0.36,0.99,12.15,-2.01,-11.60
476277,-0.02,0.18,1.03,14.83,-2.32,-7.57
476293,-0.02,0.19,0.99,13.79,-1.65,-16.30
476309,0.00,0.26,1.02,19.41,-2.44,-14.28
476325,0.01,0.27,1.02,13.00,-2.20,-9.40
476341,0.00,0.25,1.00,-2.26,-1.83,4.15
476357,-0.00,0.25,0.99,-4.03,-1.89,15.93
476373,-0.01,0.23,1.00,-3.42,-1.77,20.14
476389,-0.04,0.19,1.00,0.55,-1.34,25.57
476405,-0.02,0.13,1.00,4.09,-1.40,28.26
476421,-0.02,0.11,1.00,3.66,-1.10,28.56
476437,-0.02,0.06,1.00,3.78,-0.67,26.73
476453,-0.03,0.08,1.00,5.98,-1.10,20.14
476469,-0.03,0.10,1.01,4.82,-1.53,16.30
476485,0.00,0.09,1.01,0.85,-1.89,14.65
476501,0.01,0.10,1.00,-1.65,-2.99,18.74
476517,0.01,0.10,1.00,-4.39,-3.17,20.57
476533,-0.00,0.12,0.99,-3.30,-1.95,23.68
476549,-0.01,0.09,1.00,6.10,-1.46,25.02
476565,-0.01,0.08,1.02,9.34,-1.77,26.37
476581,-0.05,0.03,1.00,0.98,-2.50,31.01
476597,-0.04,-0.03,1.00,-4.52,-1.46,35.46
476613,-0.03,-0.07,1.00,-4.09,-1.22,35.71
476629,-0.03,-0.09,1.01,1.04,-1.34,31.49
476645,-0.04,-0.09,1.00,2.99,-1.22,20.75
476661,-0.03,-0.12,0.99,6.65,-1.28,15.14
476677,-0.03,-0.08,1.03,4.94,-1.71,7.39
476693,-0.05,-0.08,1.00,-1.71,-1.89,7.14
476709,-0.02,-0.08,1.00,3.17,-1.34,10.38
476725,-0.00,-0.08,1.01,3.11,-1.28,21.12
476741,-0.01,-0.12,1.01,1.16,-0.85,24.96
476757,0.01,-0.14,1.00,1.71,-0.85,27.10
476773,0.04,-0.21,1.01,4.58,-1.16,26.67
476789,0.00,-0.23,1.00,1.46,-0.43,16.05
476805,0.00,-0.21,1.00,2.75,-0.67,11.72
476821,0.03,-0.20,1.03,3.66,-1.53,7.75
476837,0.03,-0.25,1.00,-2.56,-1.71,6.10
476853,0.06,-0.27,1.00,-0.37,-1.77,5.31
476869,0.07,-0.29,1.01,2.69,-1.77,2.75
476885,0.09,-0.30,1.01,-0.61,-1.83,-0.61
476901,0.01,-0.06,1.00,0.61,-1.46,1.53
476917,0.03,-0.16,1.00,-0.67,-1.34,14.04
476933,0.04,-0.24,1.00,2.20,-1.10,19.84
476949,0.05,-0.29,1.01,3.17,-1.22,19.17
476965,0.05,-0.32,1.01,1.10,-1.34,14.89
476981,0.04,-0.30,1.01,-3.17,-2.01,9.22
476997,0.03,-0.27,1.01,-4.33,-2.08,5.55
477013,0.02,-0.22,1.01,-3.91,-3.30,-3.54
477029,0.02,-0.19,1.00,-0.79,-3.48,-11.96
477045,0.02,-0.18,1.00,1.89,-2.62,-15.01
477061,0.02,-0.18,1.01,6.29,-2.69,-16.48
477077,0.02,-0.15,1.01,8.36,-3.11,-12.08
477093,0.01,-0.11,1.01,7.93,-2.62,-10.07
477109,-0.03,-0.01,1.01,-1.22,-1.89,-8.18
477125,-0.04,0.06,1.00,-2.08,-1.95,-8.54
477141,-0.03,0.02,0.96,0.49,-2.08,-7.81
477157,-0.02,0.04,1.02,10.80,-1.95,-1.65
477173,-0.03,0.00,1.00,1.77,-1.53,6.16
477189,-0.04,-0.01,1.00,2.44,-1.59,8.91
477205,-0.06,-0.02,1.03,-0.06,-2.08,6.35
477221,-0.03,0.01,1.02,-12.21,-0.92,-2.99
477237,-0.02,-0.04,0.98,-7.14,-1.10,-6.23
477253,0.01,-0.02,1.01,1.83,-1.83,-12.76
477269,-0.02,-0.02,1.01,0.67,-2.62,-21.30
477285,-0.04,-0.00,0.99,-2.20,-2.08,-26.73
477301,-0.03,0.02,0.99,5.80,-1.34,-32.17
477317,-0.01,0.05,1.00,7.63,-1.65,-33.51
477333,-0.01,0.14,1.01,2.93,-2.14,-35.52
477349,-0.01,0.15,1.00,1.34,-2.75,-30.52
477365,-0.00,0.15,1.00,3.78,-2.44,-25.51
477381,0.00,0.11,1.00,1.95,-2.20,-17.76
477397,-0.01,0.07,1.02,-1.65,-2.50,-15.01
477413,-0.03,0.07,0.99,0.55,-2.38,-15.93
477429,-0.02,0.16,1.00,-0.98,-2.81,-20.63
477445,-0.01,0.22,0.99,1.40,-2.50,-23.07
477461,-0.01,0.24,0.99,6.16,-2.38,-21.12
477477,-0.00,0.29,1.01,11.72,-2.08,-14.40
477493,0.00,0.31,1.00,2.14,-1.89,-6.65
477509,-0.00,0.33,1.00,-1.40,-1.89,-2.08
477525,0.01,0.32,1.00,-2.99,-1.89,3.66
477541,-0.02,0.11,0.99,-5.80,-2.08,-1.28
477557,-0.04,0.19,0.99,-0.73,-2.08,-12.02
477573,-0.02,0.28,1.00,9.58,-2.26,-30.82
477589,0.00,0.33,1.00,6.10,-2.26,-26.12
477605,0.00,0.35,1.00,3.48,-2.08,-14.10
477621,-0.02,0.32,1.00,2.87,-1.77,8.18
477637,-0.03,0.26,1.00,2.99,-1.46,24.29
477653,-0.04,0.23,1.00,2.99,-1.22,28.69
477669,-0.04,0.17,1.00,4.76,-1.16,32.29
477685,-0.03,0.16,1.00,2.14,-0.92,34.91
477701,-0.03,0.14,1.00,0.49,-0.79,36.07
477717,-0.02,0.12,1.00,1.71,-0.92,35.58
477733,-0.01,0.10,1.00,1.46,-1.10,31.62
477749,-0.00,0.08,1.01,2.99,-1.77,29.54
477765,-0.00,0.07,1.00,0.67,-2.75,26.00
477781,-0.03,0.06,0.99,-1.77,-1.89,25.09
477797,-0.01,0.07,1.01,1.89,-1.34,25.02
477813,-0.00,0.04,1.00,1.59,-2.20,24.84
477829,-0.01,-0.01,1.01,1.53,-2.01,23.93
477845,-0.02,-0.02,1.00,-0.18,-1.53,23.32
477861,-0.02,-0.05,1.01,2.14,-1.28,22.03
477877,-0.03,-0.06,1.00,4.82,-1.28,20.39
477893,-0.01,-0.07,1.01,5.31,-1.22,19.47
477909,0.03,-0.05,1.00,6.29,-0.85,17.88
477925,-0.01,-0.14,1.00,-5.00,-2.08,18.49
477941,0.00,-0.13,1.01,1.04,-2.01,19.53
477957,0.00,-0.14,1.01,0.61,-1.40,21.61
477973,-0.02,-0.11,1.02,2.69,-1.04,19.65
477989,-0.03,-0.10,1.01,-0.31,-1.22,16.72
478005,0.01,-0.10,1.01,4.39,-1.34,17.88
478021,0.00,-0.15,1.01,2.99,-0.24,20.45
478037,0.00,-0.18,1.01,0.98,-0.61,19.41
478053,0.04,-0.19,1.02,4.39,-1.16,17.88
478069,0.04,-0.23,1.00,-0.37,-1.77,11.11
478085,0.03,-0.23,1.00,1.53,-2.14,5.86
478101,0.02,-0.23,1.01,1.53,-2.08,-0.61
478117,0.01,-0.27,1.01,0.43,-2.08,-1.28
478133,0.02,-0.30,1.01,-0.73,-2.14,-1.40
478149,0.06,-0.26,1.01,0.49,-1.83,-3.78
478165,0.00,-0.06,1.01,4.76,-1.71,3.78
478181,-0.01,-0.10,1.00,2.32,-1.40,8.48
478197,0.01,-0.17,1.01,2.32,-1.40,18.07
478213,-0.01,-0.19,1.00,-0.73,-1.89,24.05
478229,-0.00,-0.24,1.01,-0.61,-1.22,24.11
478245,-0.00,-0.26,1.01,0.98,-0.85,16.72
478261,-0.00,-0.23,1.01,-2.38,-1.53,0.55
478277,0.01,-0.20,1.00,-2.69,-1.59,-7.32
478293,0.03,-0.16,1.00,0.67,-2.26,-16.97
478309,0.03,-0.15,1.00,1.53,-2.44,-19.90
478325,0.02,-0.16,1.01,-0.55,-2.93,-18.86
478341,-0.00,-0.16,1.01,-5.13,-3.17,-16.24
478357,-0.01,-0.16,1.00,-4.64,-2.99,-15.50
478373,-0.04,-0.08,1.00,0.18,-2.20,-16.36
478389,-0.00,-0.05,0.98,-1.34,-2.93,-15.81
478405,0.01,-0.05,1.00,3.85,-2.81,-12.88
478421,-0.01,-0.02,1.01,7.69,-1.16,-6.90
478437,-0.01,-0.03,1.03,0.61,-0.92,-7.20
478453,0.01,-0.06,1.05,-4.88,-0.73,-5.98
478469,0.01,-0.04,0.98,6.29,2.08,-0.49
478485,-0.01,0.05,1.00,7.39,2.50,-3.11
478501,-0.02,0.08,0.98,0.67,-0.79,-6.10
478517,-0.06,0.06,0.99,-0.55,-9.16,-9.34
478533,0.02,0.07,1.08,-0.37,-7.02,-12.76
478549,0.04,0.01,1.01,-6.90,-1.16,-13.79
478565,0.00,-0.01,0.97,-1.95,-0.24,-9.52
478581,-0.02,0.07,1.01,4.70,-2.50,-9.83
478597,-0.02,0.08,1.00,2.62,-2.32,-12.39
478613,-0.02,0.08,1.00,1.04,-2.62,-17.76
478629,-0.00,0.04,0.99,6.35,-1.46,-20.08
478645,0.01,0.02,1.00,10.25,-0.98,-20.69
478661,-0.01,0.01,1.01,10.19,-1.16,-21.79
478677,-0.01,0.04,1.02,-0.43,-2.62,-22.83
478693,-0.00,0.05,1.02,-5.74,-2.26,-23.74
478709,-0.03,0.09,0.99,-8.06,-2.08,-26.12
478725,-0.02,0.12,0.99,0.85,-2.56,-30.82
478741,-0.01,0.15,0.99,4.46,-2.62,-33.63
478757,-0.04,0.25,1.00,6.29,-2.38,-35.71
478773,0.01,0.31,1.00,6.59,-2.32,-31.19
478789,0.01,0.32,1.00,6.59,-2.01,-24.17
478805,-0.02,0.38,1.00,4.39,-1.83,-8.30
478821,-0.00,0.14,1.03,-0.37,-1.89,1.28
478837,-0.02,0.09,0.99,-7.26,-1.65,-1.53
478853,-0.01,0.17,0.98,-0.55,-2.44,-19.90
478869,0.03,0.27,1.00,7.87,-2.69,-25.21
478885,0.05,0.30,1.00,8.48,-2.62,-21.61
478901,0.05,0.35,1.00,3.54,-2.26,-5.25
478917,0.01,0.33,0.99,4.09,-2.14,13.31
478933,-0.01,0.30,1.00,4.58,-2.01,21.48
478949,-0.03,0.22,0.99,2.01,-1.28,33.51
478965,-0.03,0.16,1.00,-0.18,-0.79,38.45
478981,-0.02,0.12,1.01,-1.04,-0.49,38.88
478997,-0.02,0.07,1.01,1.22,-1.89,36.80
479013,-0.01,0.07,1.00,1.59,-2.62,31.74
479029,-0.01,0.07,1.00,2.32,-2.69,28.26
479045,-0.01,0.05,1.00,1.77,-1.71,21.79
479061,-0.05,0.08,1.01,1.89,-1.53,17.52
479077,-0.07,0.08,1.00,1.28,-1.95,17.33
479093,-0.04,0.05,1.00,0.37,-2.38,22.77
479109,-0.04,0.02,1.00,-1.77,-1.16,28.81
479125,-0.05,0.01,1.01,0.49,-0.73,30.27
479141,-0.03,-0.02,1.01,4.94,-0.67,30.33
479157,-0.02,-0.03,1.01,7.08,-0.61,28.14
479173,-0.04,-0.06,1.01,5.92,-1.10,25.63
479189,0.01,0.00,1.01,-1.77,-1.89,24.54
479205,-0.01,-0.03,1.01,-2.87,-1.95,29.79
479221,-0.03,-0.02,1.00,-0.73,-1.28,32.84
479237,-0.03,-0.03,1.01,6.23,-1.10,35.52
479253,-0.05,-0.08,1.00,2.20,-0.85,29.42
479269,-0.04,-0.09,1.00,3.66,-1.28,26.79
479285,0.02,-0.14,1.01,4.15,-1.16,30.58
479301,0.00,-0.19,1.00,-0.49,-0.49,32.84
479317,-0.02,-0.25,1.01,1.22,-0.98,31.43
479333,-0.02,-0.33,1.01,-1.77,-1.34,24.66
479349,-0.01,-0.35,1.01,1.10,-1.28,14.10
479365,0.02,-0.41,1.01,2.01,-1.46,7.14
479381,0.05,-0.43,1.01,2.75,-1.53,-6.77
479397,0.08,-0.43,1.01,1.95,-1.95,-12.15
479413,-0.01,-0.07,1.01,4.39,-1.83,-3.78
479429,-0.03,-0.19,1.00,0.00,-1.59,6.04
479445,-0.02,-0.18,1.01,2.93,-1.53,7.14
479461,0.00,-0.19,1.01,1.65,-1.46,4.52
479477,0.04,-0.23,1.00,1.34,-1.34,3.23
479493,0.05,-0.23,1.01,1.53,-1.46,3.17
479509,0.04,-0.23,1.01,0.24,-2.14,2.01
479525,0.06,-0.24,1.00,1.28,-1.65,-2.93
479541,0.04,-0.22,1.00,1.77,-1.89,-6.77
479557,-0.00,-0.14,1.01,-0.79,-2.99,-15.81
479573,-0.01,-0.11,1.01,-1.89,-3.54,-21.00
479589,0.00,-0.11,1.00,0.37,-3.36,-21.85
479605,0.02,-0.14,1.00,3.11,-1.95,-21.24
479621,0.02,-0.16,1.01,3.48,-2.56,-19.04
479637,0.01,-0.14,1.00,2.38,-3.05,-19.41
479653,-0.03,-0.05,1.00,-1.89,-2.81,-24.41
479669,-0.03,-0.01,1.00,-1.89,-2.20,-28.69
479685,-0.02,0.00,1.00,-1.53,-1.83,-27.83
479701,-0.00,-0.01,0.93,2.87,-1.65,-20.20
479717,0.00,-0.03,1.02,8.91,-2.20,-12.39
479733,0.02,-0.06,1.00,1.10,-1.59,-10.13
479749,-0.05,-0.02,1.01,3.78,-2.62,-8.00
479765,-0.07,0.04,1.02,-6.29,-2.99,-16.05
479781,-0.06,0.06,1.00,-8.48,-2.20,-18.01
479797,-0.04,0.18,1.00,3.30,-1.95,-12.39
479813,0.00,0.15,1.00,0.67,-1.95,-6.59
479829,-0.01,0.08,1.00,-0.12,-1.83,-3.42
479845,-0.02,-0.01,1.00,4.82,-1.34,1.22
479861,-0.04,-0.02,0.99,2.87,-0.79,-3.91
479877,-0.03,-0.00,1.00,1.83,-1.46,-8.85
479893,-0.01,0.06,1.00,2.93,-1.95,-18.62
479909,-0.02,0.12,1.00,2.50,-2.50,-23.44
479925,-0.01,0.12,1.00,2.99,-2.62,-24.60
479941,0.00,0.12,1.01,3.36,-2.50,-23.99
479957,-0.04,0.13,0.99,0.55,-2.44,-23.68
479973,-0.05,0.19,1.00,0.49,-2.62,-25.27
479989,-0.03,0.27,0.99,3.91,-2.75,-27.77
480005,-0.00,0.39,1.01,10.07,-2.56,-24.54