time,accel_x,accel_y,accel_z,gyro_x,gyro_y,gyro_z
60022,-0.05,0.07,0.99,10.38,-35.34,11.41
60037,-0.04,0.07,0.99,14.34,-38.09,11.72
60053,-0.02,0.09,0.98,19.53,-41.99,10.01
60069,-0.02,0.11,0.98,22.22,-43.46,9.22
60085,-0.00,0.14,0.96,21.48,-46.51,9.03
60101,0.03,0.14,0.92,14.71,-46.81,10.38
60117,0.03,0.13,0.90,10.93,-46.33,10.99
60133,0.04,0.13,0.85,5.86,-44.25,11.05
60149,0.06,0.14,0.81,2.38,-43.15,10.56
60165,0.08,0.14,0.79,0.67,-44.19,10.56
60181,0.11,0.14,0.75,-3.05,-45.53,11.78
60197,0.13,0.14,0.71,-8.00,-42.66,12.33
60213,0.14,0.14,0.68,-11.29,-39.79,12.51
60229,0.14,0.11,0.63,-17.15,-32.41,14.22
60245,0.13,0.08,0.58,-18.80,-27.28,17.15
60261,0.13,0.06,0.56,-17.70,-26.06,18.55
60277,0.15,-0.00,0.51,-16.05,-26.67,21.42
60293,0.18,-0.07,0.45,-11.84,-26.31,23.44
60309,0.19,-0.09,0.43,-8.36,-24.23,23.56
60325,0.17,-0.12,0.41,-1.46,-16.66,20.26
60341,0.15,-0.12,0.42,0.55,-4.52,10.01
60357,0.16,-0.11,0.43,-0.06,2.75,3.23
60373,0.18,-0.05,0.51,-1.22,20.39,-11.35
60389,0.17,0.00,0.63,-5.43,37.60,-20.08
60405,0.15,0.02,0.67,-11.11,41.75,-21.48
60421,0.13,0.03,0.74,-15.93,39.79,-20.32
60437,0.11,0.05,0.81,-5.07,32.47,-18.13
60453,0.11,0.08,0.85,1.28,28.93,-17.40
60469,0.14,0.11,0.87,-1.10,20.02,-15.44
60485,0.15,0.11,0.84,-7.87,17.94,-9.40
60501,0.14,0.10,0.83,-8.36,19.71,-4.46
60517,0.07,0.06,0.84,-2.69,24.96,5.62
60533,0.05,0.03,0.88,3.17,28.63,9.22
60549,0.05,0.02,0.90,5.25,29.91,7.51
60565,0.08,0.01,0.93,7.81,30.94,1.71
60581,0.07,0.01,0.95,8.67,32.96,-0.79
60597,0.01,0.02,1.00,6.35,34.24,-1.65
60613,-0.04,0.03,1.03,-1.89,36.93,-5.55
60629,-0.04,0.03,1.04,-3.54,40.10,-12.88
60645,0.00,0.08,1.05,-0.37,41.50,-16.85
60661,0.02,0.14,1.09,4.52,40.89,-19.10
60677,0.01,0.16,1.10,3.30,37.90,-11.84
60693,-0.02,0.16,1.12,1.28,36.07,-7.14
60709,-0.04,0.12,1.13,-4.52,31.74,-1.40
60725,-0.04,0.11,1.12,-5.37,29.91,-3.72
60741,-0.03,0.11,1.10,0.98,26.12,-5.80
60757,-0.00,0.21,1.09,14.89,20.26,-6.47
60773,-0.05,0.11,1.03,7.51,19.35,-4.76
60789,-0.10,0.15,1.17,40.16,13.67,8.73
60805,-0.11,0.06,1.13,20.20,5.07,3.23
60821,-0.10,0.06,1.14,23.99,7.93,0.00
60837,-0.08,0.13,1.17,26.79,10.62,-9.83
60853,-0.05,0.22,1.16,22.71,10.68,-18.31
60869,-0.05,0.26,1.15,20.63,11.47,-17.46
60885,-0.07,0.25,1.12,11.54,13.92,-8.06
60901,-0.08,0.19,1.09,6.90,19.10,1.71
60917,-0.08,0.17,1.10,8.12,22.16,3.91
60933,-0.07,0.17,1.15,9.03,26.67,3.42
60949,-0.08,0.16,1.17,1.83,28.63,1.59
60965,-0.09,0.16,1.16,-1.22,28.44,1.40
60981,-0.11,0.13,1.16,-0.31,23.68,2.08
60997,-0.11,0.30,1.57,-19.53,22.77,4.27
61013,-0.17,0.19,1.45,-55.11,39.31,4.94
61029,-0.24,0.11,1.31,-14.71,29.24,7.69
61045,-0.15,0.11,1.27,13.92,-26.61,0.79
61061,-0.12,0.10,1.19,17.76,-39.43,-1.16
61077,-0.08,0.12,1.07,29.66,-45.59,-0.79
61093,-0.06,0.14,1.07,26.67,-39.49,0.55
61109,-0.08,0.15,1.08,20.26,-30.76,0.49
61125,-0.09,0.18,1.13,5.86,-7.20,-0.73
61141,-0.10,0.18,1.21,-12.33,9.28,-3.54
61157,-0.09,0.18,1.24,-18.49,13.24,-5.31
61173,-0.12,0.18,1.28,-20.14,13.37,-7.93
61189,-0.14,0.19,1.31,-14.10,3.78,-5.92
61205,-0.14,0.20,1.32,-10.38,-2.32,-4.09
61221,-0.15,0.20,1.31,-7.08,-13.00,-0.18
61237,-0.13,0.18,1.27,-9.58,-20.32,3.48
61253,-0.12,0.18,1.25,-8.30,-23.50,5.49
61269,-0.11,0.17,1.21,-3.60,-26.86,7.75
61285,-0.10,0.17,1.18,-4.76,-25.21,7.87
61301,-0.11,0.16,1.16,-7.69,-23.07,7.32
61317,-0.08,0.14,1.12,-12.88,-14.95,7.63
61333,-0.09,0.13,1.13,-10.07,-8.48,9.64
61349,-0.10,0.12,1.13,-9.09,-7.45,10.38
61365,-0.11,0.11,1.14,-5.80,-10.74,12.21
61381,-0.12,0.10,1.13,-4.82,-19.10,11.47
61397,-0.11,0.10,1.10,-5.62,-23.68,10.50
61413,-0.10,0.11,0.99,-3.11,-29.48,8.30
61429,-0.07,0.14,0.86,9.64,-30.46,8.54
61445,-0.04,0.16,0.82,18.86,-27.40,10.07
61461,-0.02,0.20,0.85,28.50,-19.90,17.40
61477,-0.04,0.19,0.92,18.13,-15.69,27.59
61493,-0.05,0.16,0.93,6.65,-16.48,31.01
61509,-0.07,0.08,0.89,-13.73,-23.68,35.03
61525,-0.09,0.01,0.81,-15.20,-34.73,31.25
61541,-0.09,-0.00,0.77,-12.88,-41.20,29.05
61557,-0.08,-0.01,0.69,-8.54,-50.66,24.84
61573,-0.02,0.01,0.64,-1.53,-53.28,19.90
61589,0.00,0.03,0.62,-0.79,-53.71,17.52
61605,0.02,0.04,0.57,-5.19,-52.12,15.87
61621,0.02,0.03,0.52,-16.05,-46.14,16.85
61637,0.04,-0.02,0.50,-20.69,-41.69,17.27
61653,0.07,-0.06,0.47,-26.18,-32.71,16.17
61669,0.08,-0.08,0.47,-23.44,-21.42,10.13
61685,0.08,-0.09,0.46,-19.29,-14.77,6.29
61701,0.10,-0.07,0.50,-6.65,-2.01,-2.01
61717,0.11,-0.05,0.53,1.65,8.61,-6.96
61733,0.12,-0.06,0.61,1.46,14.22,-6.77
61749,0.13,-0.07,0.68,-5.43,22.64,-4.70
61765,0.13,-0.07,0.71,-9.34,20.87,-5.80
61781,0.09,-0.07,0.74,-11.90,18.49,-7.02
61797,0.06,-0.05,0.78,-10.13,13.73,-10.13
61813,0.04,-0.03,0.79,-9.03,11.96,-12.08
61829,0.03,0.01,0.80,-3.30,11.41,-15.08
61845,0.07,0.04,0.81,4.64,12.15,-13.06
61861,0.08,0.05,0.82,7.75,12.51,-9.95
61877,0.04,0.04,0.83,5.98,13.67,-2.56
61893,0.00,-0.00,0.82,-4.70,14.89,1.34
61909,-0.01,-0.03,0.81,-7.57,14.53,1.89
61925,0.02,-0.05,0.83,3.54,15.32,1.53
61941,0.05,-0.01,0.88,22.22,20.08,-4.82
61957,0.05,0.02,0.92,26.00,24.29,-8.73
61973,0.02,0.07,0.96,16.05,35.10,-12.94
61989,-0.04,0.07,1.00,-0.79,43.52,-10.68
62005,-0.04,0.06,1.03,-4.82,46.51,-8.18
62021,-0.04,0.03,1.10,-2.99,49.62,-2.99
62037,-0.05,0.04,1.19,7.32,47.30,-4.76
62053,-0.06,0.07,1.23,9.70,43.76,-7.45
62069,-0.08,0.11,1.26,7.81,37.48,-9.95
62085,-0.10,0.09,1.23,0.18,31.31,-4.82
62101,-0.12,0.07,1.22,-0.18,28.50,-1.28
62117,-0.07,0.11,1.23,7.69,20.94,3.48
62133,-0.09,0.01,1.19,5.31,18.68,4.03
62149,-0.09,0.09,1.28,36.99,14.16,7.45
62165,-0.09,0.05,1.19,6.29,-0.12,-6.35
62181,-0.11,0.07,1.15,8.85,1.04,-8.18
62197,-0.12,0.09,1.16,11.66,-0.55,-7.63
62213,-0.11,0.12,1.16,14.53,-2.56,-10.44
62229,-0.07,0.15,1.19,19.47,-0.06,-7.63
62245,-0.07,0.17,1.21,16.36,0.31,-5.74
62261,-0.07,0.16,1.19,-4.03,-0.49,-2.20
62277,-0.07,0.12,1.15,-14.83,-1.65,0.31
62293,-0.06,0.11,1.14,-12.63,-2.14,1.83
62309,-0.05,0.09,1.13,-1.95,-6.53,4.82
62325,-0.05,0.08,1.11,8.54,-12.57,7.08
62341,-0.06,0.08,1.11,11.17,-15.38,7.32
62357,-0.06,0.08,1.09,7.69,-18.25,5.31
62373,-0.03,0.08,1.12,3.85,-14.04,2.44
62389,-0.04,0.08,1.15,3.48,-9.34,1.65
62405,-0.06,0.10,1.23,4.27,0.67,1.59
62421,-0.05,0.13,1.32,2.01,8.18,1.34
62437,-0.04,0.13,1.35,-0.43,10.19,2.14
62453,-0.05,0.10,1.41,1.83,8.91,5.80
62469,-0.07,0.07,1.45,9.46,-0.55,8.06
62485,-0.08,0.07,1.46,12.70,-6.77,7.69
62501,-0.10,0.09,1.44,12.21,-18.68,3.66
62517,-0.10,0.13,1.38,6.23,-26.92,-2.20
62533,-0.10,0.15,1.33,4.46,-29.54,-4.94
62549,-0.07,0.18,1.25,5.25,-31.98,-4.82
62565,-0.06,0.18,1.19,6.41,-33.63,0.31
62581,-0.05,0.17,1.18,5.74,-34.85,3.91
62597,-0.03,0.15,1.14,0.12,-36.38,9.16
62613,-0.03,0.13,1.12,-0.37,-35.16,11.29
62629,-0.04,0.11,1.11,0.55,-35.64,11.41
62645,-0.04,0.10,1.09,-0.85,-37.29,9.16
62661,-0.05,0.07,1.04,-5.68,-32.41,6.47
62677,-0.04,0.06,1.03,-7.20,-27.77,6.59
62693,-0.06,0.04,1.01,-11.47,-20.51,7.32
62709,-0.08,0.03,1.01,-11.23,-25.15,5.80
62725,-0.07,0.02,1.00,-8.54,-29.85,4.15
62741,-0.03,0.04,0.97,-1.28,-40.95,0.98
62757,-0.02,0.06,0.95,2.20,-49.50,-1.46
62773,-0.01,0.08,0.90,1.95,-52.73,-1.16
62789,0.01,0.06,0.84,2.56,-58.23,4.33
62805,0.01,0.05,0.81,6.77,-60.55,11.47
62821,0.02,0.02,0.75,8.48,-60.61,13.43
62837,0.04,-0.00,0.68,8.00,-60.12,14.77
62853,0.05,-0.01,0.65,6.84,-59.20,13.98
62869,0.08,-0.02,0.58,3.30,-56.21,9.46
62885,0.13,0.01,0.53,-0.06,-53.41,2.01
62901,0.15,0.03,0.50,-0.73,-50.42,-1.28
62917,0.18,0.05,0.46,-5.37,-42.48,-5.31
62933,0.23,0.05,0.45,-7.75,-29.24,-3.91
62949,0.24,0.04,0.46,-8.42,-21.36,-2.44
62965,0.23,0.03,0.50,-8.18,-5.68,0.61
62981,0.21,0.01,0.54,-12.94,5.13,0.55
62997,0.21,-0.00,0.56,-16.97,8.91,-0.37
63013,0.22,-0.03,0.61,-22.64,15.69,-2.50
63029,0.22,-0.03,0.66,-19.04,23.07,-5.92
63045,0.22,-0.02,0.69,-12.82,25.09,-7.26
63061,0.21,0.01,0.73,-1.28,23.99,-7.51
63077,0.20,0.03,0.77,1.53,20.69,-5.19
63093,0.20,0.04,0.78,-0.43,20.45,-3.91
63109,0.18,0.05,0.78,-7.87,21.55,-3.54
63125,0.16,0.06,0.79,-4.52,23.07,-3.05
63141,0.16,0.07,0.79,0.61,23.68,-2.38
63157,0.15,0.09,0.81,10.31,24.66,1.89
63173,0.13,0.07,0.84,10.07,28.75,8.30
63189,0.10,0.05,0.86,7.51,31.62,11.47
63205,0.07,-0.00,0.89,3.78,36.25,15.08
63221,0.08,-0.03,0.93,2.75,36.68,12.39
63237,0.10,-0.03,0.94,1.04,36.13,9.22
63253,0.11,-0.02,0.94,-1.16,37.11,1.53
63269,0.07,0.00,0.95,4.64,42.72,-2.08
63285,0.05,0.02,0.98,9.46,46.02,-2.20
63301,0.01,0.04,1.06,18.92,51.09,-0.67
63317,0.00,0.05,1.12,17.15,51.33,0.18
63333,0.01,0.05,1.14,12.39,50.35,-0.92
63349,0.01,0.06,1.14,3.85,48.83,-4.39
63365,-0.03,0.07,1.14,-0.49,47.06,-4.94
63381,-0.07,0.06,1.13,0.61,44.01,-4.09
63397,-0.10,0.07,1.14,13.43,37.41,-1.22
63413,-0.13,0.11,1.12,19.29,34.42,-2.32
63429,-0.10,0.06,1.13,14.10,38.21,-0.55
63445,-0.12,0.13,1.28,36.19,31.43,3.60
63461,-0.10,0.08,1.26,14.71,28.32,-5.68
63477,-0.14,0.09,1.29,16.05,28.50,-7.20
63493,-0.14,0.14,1.35,20.51,25.45,-10.13
63509,-0.12,0.19,1.39,18.62,21.24,-12.02
63525,-0.10,0.20,1.39,14.28,17.70,-10.25
63541,-0.07,0.20,1.34,4.58,6.23,-5.62
63557,-0.05,0.17,1.26,2.08,-3.30,-1.22
63573,-0.05,0.17,1.23,4.33,-6.23,0.73
63589,-0.05,0.17,1.19,7.87,-9.46,2.44
63605,-0.06,0.17,1.22,9.40,-9.28,3.48
63621,-0.06,0.17,1.24,9.16,-7.63,3.97
63637,-0.05,0.18,1.28,4.76,-4.94,3.97
63653,-0.06,0.16,1.30,-1.28,-1.71,5.00
63669,-0.06,0.15,1.31,-2.87,0.49,6.35
63685,-0.06,0.11,1.36,0.06,3.36,8.85
63701,-0.08,0.11,1.42,10.93,2.81,7.75
63717,-0.10,0.13,1.45,14.77,0.00,5.80
63733,-0.15,0.17,1.44,11.78,-8.85,0.31
63749,-0.15,0.19,1.38,6.65,-20.32,-0.85
63765,-0.14,0.20,1.35,5.74,-26.86,0.55
63781,-0.12,0.20,1.25,8.18,-36.87,5.19
63797,-0.11,0.19,1.22,15.69,-40.41,10.13
63813,-0.08,0.20,1.16,17.27,-40.41,11.90
63829,-0.07,0.19,1.14,18.25,-38.57,14.16
63845,-0.07,0.19,1.13,12.08,-37.17,14.04
63861,-0.06,0.18,1.09,8.42,-34.67,13.24
63877,-0.06,0.18,1.07,3.48,-31.43,10.99
63893,-0.05,0.18,1.05,1.83,-31.43,10.31
63909,-0.04,0.18,1.01,0.18,-35.46,10.86
63925,-0.06,0.18,0.99,12.33,-41.75,16.60
63941,-0.06,0.17,0.98,19.10,-44.80,20.57
63957,-0.05,0.16,0.97,24.60,-48.83,25.82
63973,-0.06,0.14,0.93,17.52,-50.42,25.94
63989,-0.06,0.13,0.90,10.25,-51.94,24.96
64005,-0.07,0.10,0.81,-1.40,-58.04,22.34
64021,-0.05,0.08,0.70,-5.07,-65.92,17.82
64037,-0.03,0.08,0.65,-4.70,-68.97,16.11
64053,0.04,0.08,0.55,-3.60,-70.92,14.10
64069,0.10,0.07,0.48,-1.95,-66.89,13.92
64085,0.12,0.07,0.45,-1.83,-63.42,13.98
64101,0.16,0.06,0.42,-5.19,-54.87,13.43
64117,0.19,0.06,0.39,-12.02,-44.37,9.58
64133,0.20,0.06,0.38,-14.89,-37.84,6.59
64149,0.22,0.08,0.37,-19.78,-22.58,0.37
64165,0.23,0.09,0.37,-22.83,-6.77,-3.23
64181,0.22,0.08,0.39,-23.62,0.24,-3.17
64197,0.24,0.05,0.46,-24.11,12.45,0.55
64213,0.24,-0.01,0.51,-28.69,19.41,1.53
64229,0.24,-0.04,0.54,-29.48,20.57,0.92
64245,0.25,-0.06,0.57,-26.31,19.84,-2.01
64261,0.23,-0.02,0.58,-15.14,15.93,-8.97
64277,0.23,0.01,0.59,-7.26,14.59,-11.23
64293,0.19,0.05,0.61,2.62,16.11,-10.25
64309,0.16,0.09,0.67,7.81,25.57,-5.68
64325,0.16,0.11,0.72,6.96,32.90,-5.07
64341,0.15,0.12,0.80,-1.22,46.33,-4.27
64357,0.10,0.12,0.85,-7.93,52.25,-1.04
64373,0.08,0.11,0.88,-6.16,53.53,1.59
64389,0.00,0.09,0.94,2.62,53.41,6.84
64405,-0.02,0.08,0.99,10.25,48.77,10.62
64421,-0.01,0.08,1.02,11.17,46.26,10.74
64437,0.01,0.06,1.05,5.13,43.76,9.28
64453,-0.02,0.03,1.06,-3.42,45.90,7.14
64469,-0.03,0.02,1.07,-5.49,48.52,5.31
64485,-0.07,0.03,1.09,-5.80,51.15,-1.65
64501,-0.07,0.06,1.11,-2.14,47.36,-8.85
64517,-0.03,0.07,1.12,-1.46,43.21,-10.44
64533,0.01,0.09,1.12,-1.53,36.50,-9.58
64549,0.00,0.09,1.13,-0.49,38.51,-4.58
64565,-0.03,0.09,1.13,-0.49,40.41,-2.56
64581,-0.08,0.07,1.14,-2.75,44.31,0.24
64597,-0.10,0.04,1.15,-0.98,43.82,-1.10
64613,-0.10,0.09,1.13,0.61,41.87,-2.75
64629,-0.11,0.07,1.25,27.16,41.08,2.75
64645,-0.12,0.05,1.26,22.58,26.25,-3.97
64661,-0.13,0.07,1.27,26.98,24.35,-6.65
64677,-0.15,0.09,1.27,24.72,16.48,-9.03
64693,-0.16,0.16,1.26,23.56,4.33,-13.12
64709,-0.15,0.19,1.24,20.75,-0.49,-14.83
64725,-0.14,0.22,1.24,17.76,-5.92,-11.90
64741,-0.10,0.23,1.23,17.46,-6.23,-7.51
64757,-0.09,0.23,1.23,16.54,-5.43,-5.80
64773,-0.09,0.23,1.23,11.23,-3.05,-2.69
64789,-0.09,0.23,1.22,2.50,-2.62,0.24
64805,-0.09,0.22,1.21,-2.26,-2.81,0.55
64821,-0.10,0.20,1.18,-6.35,-4.52,2.01
64837,-0.10,0.18,1.18,2.50,-4.76,5.00
64853,-0.12,0.18,1.22,6.84,-4.03,5.92
64869,-0.10,0.19,1.28,2.20,-1.22,5.19
64885,-0.10,0.19,1.29,-5.37,2.81,3.78
64901,-0.13,0.20,1.35,-6.35,3.42,3.85
64917,-0.16,0.20,1.42,-5.43,2.01,4.82
64933,-0.16,0.18,1.45,-5.55,-1.04,7.26
64949,-0.17,0.16,1.49,-6.35,-2.50,8.61
64965,-0.20,0.14,1.49,-11.96,-8.36,8.06
64981,-0.21,0.13,1.46,-13.61,-13.79,6.23
64997,-0.21,0.13,1.40,-10.31,-29.17,2.14
65013,-0.17,0.15,1.33,0.12,-44.92,0.55
65029,-0.16,0.16,1.29,3.11,-50.72,0.43
65045,-0.11,0.18,1.21,2.93,-56.95,2.75
65061,-0.08,0.17,1.11,-4.76,-56.64,7.20
65077,-0.06,0.16,1.07,-7.93,-55.11,10.01
65093,-0.03,0.14,1.01,-9.40,-52.43,14.59
65109,0.06,0.12,0.96,-4.70,-47.36,17.33
65125,0.08,0.12,0.95,0.73,-43.64,19.10
65141,0.03,0.13,0.95,13.85,-34.06,23.62
65157,0.03,0.13,0.98,16.48,-25.27,27.65
65173,0.05,0.12,0.99,13.85,-23.62,28.56
65189,0.01,0.11,1.01,11.35,-28.26,29.05
65205,-0.05,0.10,0.99,6.41,-36.80,28.08
65221,-0.08,0.08,0.96,1.53,-41.69,27.04
65237,-0.07,0.04,0.84,-9.52,-53.53,24.23
65253,-0.04,0.02,0.71,-12.21,-68.66,21.48
65269,-0.02,0.01,0.65,-10.50,-75.01,19.41
65285,-0.00,0.03,0.54,-6.16,-81.60,15.32
65301,0.04,0.04,0.44,-6.90,-77.70,11.66
65317,0.07,0.03,0.40,-8.97,-72.69,10.99
65333,0.15,0.02,0.34,-13.98,-57.98,11.23
65349,0.16,0.01,0.30,-18.19,-42.11,10.31
65365,0.15,0.01,0.30,-19.10,-33.94,9.34
65381,0.16,-0.00,0.31,-21.91,-17.52,5.31
65397,0.21,-0.01,0.34,-25.15,0.18,0.55
65413,0.23,-0.02,0.36,-25.09,10.13,-1.22
65429,0.24,-0.04,0.44,-23.99,28.14,-1.40
65445,0.19,-0.06,0.54,-22.77,43.70,1.04
65461,0.17,-0.07,0.59,-23.74,48.34,0.73
65477,0.17,-0.10,0.67,-27.04,48.40,-4.94
65493,0.18,-0.12,0.74,-23.50,43.95,-11.11
65509,0.17,-0.12,0.77,-19.29,42.66,-13.43
65525,0.15,-0.07,0.82,-11.78,38.94,-18.62
65541,0.11,-0.00,0.86,-3.36,34.00,-22.83
65557,0.10,0.03,0.87,-1.04,31.43,-22.77
65573,0.10,0.06,0.88,0.06,25.70,-18.07
65589,0.15,0.06,0.87,2.44,20.02,-10.56
65605,0.15,0.05,0.86,5.55,18.43,-5.62
65621,0.10,0.03,0.89,10.68,22.40,3.36
65637,0.02,0.01,0.94,7.93,30.88,9.09
65653,-0.02,-0.01,0.96,4.88,33.57,9.40
65669,-0.03,-0.04,0.98,2.62,32.53,5.19
65685,0.04,-0.06,0.99,3.72,27.34,-2.44
65701,0.07,-0.06,0.99,4.03,25.82,-5.00
65717,0.06,-0.08,0.99,9.83,27.65,-4.76
65733,-0.01,-0.06,1.05,30.15,36.38,-0.98
65749,-0.05,-0.03,1.11,36.74,39.86,-1.46
65765,-0.07,0.03,1.19,34.55,40.65,-6.96
65781,-0.03,0.05,1.20,13.85,35.16,-13.98
65797,-0.01,0.05,1.18,4.52,31.49,-15.87
65813,-0.02,0.06,1.15,3.72,24.66,-17.27
65829,-0.04,0.13,1.14,22.46,21.55,-16.48
65845,-0.06,0.17,1.16,31.92,21.00,-15.01
65861,-0.06,0.21,1.20,33.87,19.84,-8.79
65877,-0.04,0.24,1.24,6.65,18.86,-4.33
65893,-0.04,0.15,1.19,-1.95,22.77,-0.61
65909,-0.05,0.14,1.20,-4.15,17.52,-0.37
65925,-0.05,0.11,1.15,-3.17,20.14,-4.21
65941,-0.06,0.10,1.15,2.99,19.04,-2.08
65957,-0.08,0.12,1.17,17.58,10.93,0.49
65973,-0.08,0.13,1.19,14.22,4.52,-0.67
65989,-0.06,0.13,1.18,9.52,3.23,-1.46
66005,-0.05,0.12,1.15,-0.06,3.11,-2.93
66021,-0.06,0.11,1.12,-2.20,4.15,-2.69
66037,-0.08,0.10,1.11,2.62,6.10,-1.59
66053,-0.07,0.11,1.14,9.40,8.30,0.43
66069,-0.07,0.12,1.17,11.60,9.83,0.73
66085,-0.08,0.14,1.23,8.48,13.85,0.06
66101,-0.08,0.15,1.26,-0.85,15.44,-0.79
66117,-0.09,0.15,1.28,-3.66,14.89,-1.34
66133,-0.12,0.17,1.34,-1.71,13.49,-1.65
66149,-0.13,0.22,1.42,1.40,10.93,-2.20
66165,-0.13,0.24,1.45,-0.49,8.18,-2.50
66181,-0.14,0.26,1.48,-3.17,2.08,-1.22
66197,-0.13,0.26,1.49,-1.53,-1.95,5.07
66213,-0.12,0.24,1.48,-2.01,-4.58,9.28
66229,-0.15,0.20,1.46,-2.50,-12.21,16.78
66245,-0.16,0.15,1.40,-4.21,-21.42,20.75
66261,-0.17,0.13,1.37,-2.75,-26.49,21.00
66277,-0.14,0.11,1.30,2.44,-35.10,20.08
66293,-0.11,0.10,1.26,3.97,-39.79,18.86
66309,-0.11,0.10,1.24,1.71,-40.47,18.68
66325,-0.12,0.08,1.19,-8.91,-40.59,17.58
66341,-0.13,0.06,1.12,-15.75,-40.59,16.24
66357,-0.11,0.06,1.09,-16.24,-40.28,15.26
66373,-0.06,0.04,1.02,-15.50,-39.61,10.19
66389,-0.02,0.04,0.97,-10.50,-35.46,4.88
66405,-0.01,0.05,0.95,-8.06,-32.96,3.42
66421,-0.01,0.08,0.96,1.28,-30.15,3.78
66437,-0.02,0.10,0.99,5.74,-28.38,6.59
66453,-0.03,0.09,1.00,5.98,-27.89,9.09
66469,-0.06,0.07,1.00,7.69,-32.35,16.11
66485,-0.08,0.04,0.94,12.70,-47.30,20.87
66501,-0.08,0.03,0.89,15.69,-56.70,21.91
66517,-0.10,0.03,0.78,19.23,-72.63,21.61
66533,-0.08,0.01,0.64,15.81,-83.25,19.59
66549,-0.04,-0.00,0.57,13.43,-86.91,18.49
66565,0.03,-0.02,0.46,10.44,-87.10,16.24
66581,0.09,-0.03,0.37,6.77,-79.10,13.31
66597,0.10,-0.03,0.34,5.92,-73.00,12.08
66613,0.14,-0.02,0.30,4.76,-58.96,9.34
66629,0.19,-0.03,0.29,1.22,-44.62,7.69
66645,0.21,-0.04,0.28,-0.85,-36.32,7.02
66661,0.22,-0.07,0.30,-1.77,-18.37,6.47
66677,0.19,-0.07,0.34,-3.60,-1.59,2.50
66693,0.20,-0.07,0.37,-6.04,6.16,-1.53
66709,0.23,-0.07,0.45,-14.10,21.42,-9.09
66725,0.26,-0.06,0.53,-22.77,34.79,-15.99
66741,0.25,-0.05,0.56,-23.74,37.96,-18.62
66757,0.18,-0.02,0.60,-10.86,36.07,-21.55
66773,0.14,0.03,0.67,11.96,30.52,-19.53
66789,0.13,0.05,0.72,20.69,28.63,-16.78
66805,0.15,0.08,0.81,21.73,31.13,-12.15
66821,0.14,0.09,0.85,12.15,33.51,-9.70
66837,0.13,0.09,0.86,8.85,33.57,-8.42
66853,0.07,0.11,0.88,7.81,31.80,-6.04
66869,0.03,0.13,0.89,5.25,31.19,-6.23
66885,0.03,0.14,0.90,3.97,32.23,-6.41
66901,0.08,0.12,0.93,1.46,37.54,-5.68
66917,0.10,0.11,0.97,-0.06,44.56,-1.95
66933,0.07,0.11,0.99,-0.37,47.97,-0.18
66949,-0.00,0.11,1.05,-3.17,52.98,2.81
66965,-0.04,0.10,1.08,-8.12,52.61,3.78
66981,-0.07,0.06,1.11,-7.87,50.72,3.42
66997,-0.03,0.05,1.12,2.62,44.62,0.12
67013,-0.03,0.06,1.14,19.10,39.67,-2.93
67029,-0.04,0.10,1.17,21.91,38.33,-2.38
67045,-0.07,0.11,1.19,15.63,34.06,1.28
67061,-0.08,0.12,1.21,10.38,29.85,1.40
67077,-0.09,0.15,1.24,4.39,28.69,-0.55
67093,-0.08,0.13,1.22,1.10,26.98,-2.26
67109,-0.07,0.19,1.30,23.62,22.58,1.71
67125,-0.04,0.17,1.27,18.74,8.24,-0.24
67141,-0.04,0.16,1.24,14.59,4.03,1.22
67157,-0.04,0.16,1.24,15.26,2.75,3.17
67173,-0.03,0.16,1.21,5.55,1.10,0.61
67189,-0.02,0.16,1.19,-1.34,7.08,-3.72
67205,-0.02,0.16,1.18,-4.27,10.50,-4.70
67221,-0.01,0.15,1.15,-11.35,16.36,-6.59
67237,-0.02,0.15,1.13,-12.63,20.20,-5.80
67253,-0.02,0.14,1.12,-13.12,20.69,-5.43
67269,-0.03,0.14,1.11,-9.70,21.55,-3.23
67285,-0.04,0.15,1.12,-4.15,21.91,-1.95
67301,-0.04,0.16,1.15,-1.89,21.91,-1.71
67317,-0.06,0.18,1.30,-0.24,21.85,0.18
67333,-0.14,0.19,1.35,13.24,20.45,4.64
67349,-0.12,0.17,1.33,16.36,11.35,2.99
67365,-0.10,0.17,1.34,26.86,-6.90,-1.10
67381,-0.05,0.22,1.37,22.64,-9.46,-2.69
67397,-0.06,0.25,1.41,23.07,-4.76,-2.69
67413,-0.10,0.28,1.49,21.30,2.87,1.71
67429,-0.11,0.27,1.52,7.32,-2.32,7.63
67445,-0.12,0.26,1.50,-0.18,-8.97,9.09
67461,-0.16,0.23,1.44,-7.51,-24.48,10.93
67477,-0.14,0.21,1.35,-9.09,-37.48,11.84
67493,-0.13,0.21,1.31,-7.26,-41.69,12.45
67509,-0.10,0.20,1.22,-7.45,-44.56,12.70
67525,-0.08,0.19,1.14,-9.46,-41.26,13.00
67541,-0.07,0.18,1.11,-11.41,-38.57,12.82
67557,-0.07,0.18,1.06,-14.53,-33.45,11.96
67573,-0.04,0.17,1.02,-13.49,-28.38,13.37
67589,-0.04,0.16,1.01,-12.94,-25.45,13.92
67605,-0.03,0.13,0.98,-17.76,-16.85,14.53
67621,-0.05,0.10,0.98,-17.33,-9.64,15.81
67637,-0.08,0.09,0.99,-12.08,-10.62,16.85
67653,-0.10,0.07,1.00,-0.85,-18.80,18.01
67669,-0.10,0.07,0.99,6.16,-30.27,18.37
67685,-0.09,0.07,0.98,6.65,-34.73,18.37
67701,-0.08,0.06,0.92,-1.65,-40.04,17.76
67717,-0.05,0.05,0.84,-6.16,-43.70,17.40
67733,-0.04,0.04,0.81,-2.44,-44.74,18.13
67749,-0.03,0.03,0.78,8.67,-45.10,21.85
67765,-0.01,0.03,0.75,12.02,-43.33,22.40
67781,0.00,0.02,0.73,10.25,-42.05,21.73
67797,0.03,0.00,0.70,2.50,-38.64,18.86
67813,0.04,0.00,0.66,-4.64,-34.00,13.12
67829,0.04,0.01,0.64,-7.02,-30.88,9.64
67845,0.05,0.02,0.61,-7.32,-23.56,4.27
67861,0.05,0.03,0.60,-4.58,-15.69,3.17
67877,0.06,0.02,0.59,-4.46,-11.60,4.03
67893,0.07,-0.00,0.57,-9.46,-5.98,5.31
67909,0.06,-0.04,0.54,-16.66,-4.46,3.48
67925,0.09,-0.05,0.54,-19.29,-3.30,0.98
67941,0.11,-0.05,0.54,-21.42,2.08,-6.47
67957,0.11,-0.05,0.54,-22.71,10.19,-12.21
67973,0.11,-0.05,0.55,-21.30,14.04,-12.76
67989,0.11,-0.05,0.60,-13.06,19.59,-12.15
68005,0.12,-0.04,0.64,-6.65,19.59,-12.70
68021,0.14,-0.05,0.70,-7.57,18.55,-13.24
68037,0.13,-0.04,0.73,-9.77,17.58,-15.14
68053,0.11,-0.03,0.75,-9.77,19.10,-18.92
68069,0.06,0.01,0.79,-10.31,19.41,-20.45
68085,0.02,0.05,0.80,-9.52,16.24,-22.16
68101,0.03,0.06,0.80,-2.20,10.50,-18.31
68117,0.08,0.07,0.82,2.26,8.73,-14.47
68133,0.10,0.05,0.84,5.19,9.34,-5.80
68149,0.08,0.05,0.84,5.62,11.35,-1.83
68165,0.03,0.04,0.87,7.57,16.24,1.34
68181,0.01,0.04,0.91,4.70,19.29,0.24
68197,0.01,0.03,0.92,1.65,20.63,-1.59
68213,0.04,0.02,0.94,-2.93,23.25,-5.37
68229,0.05,0.01,0.98,-1.34,30.21,-5.13
68245,0.03,0.02,1.00,0.43,34.12,-4.09
68261,-0.02,0.04,1.05,-0.43,40.77,-4.70
68277,-0.05,0.05,1.09,-3.54,44.31,-5.98
68293,-0.06,0.05,1.12,-4.15,44.49,-5.55
68309,-0.05,0.04,1.15,-1.89,41.63,-2.93
68325,-0.04,0.03,1.18,3.66,36.68,-1.71
68341,-0.05,0.04,1.19,5.55,35.28,-0.98
68357,-0.08,0.04,1.20,9.34,34.18,1.16
68373,-0.14,0.05,1.21,14.83,28.20,3.30
68389,-0.11,0.10,1.24,18.74,24.54,3.23
68405,-0.16,0.01,1.20,15.63,25.45,2.81
68421,-0.14,0.09,1.27,30.09,11.78,-1.71
68437,-0.12,0.07,1.23,12.45,9.34,-7.87
68453,-0.13,0.10,1.25,18.25,12.88,-6.04
68469,-0.11,0.15,1.24,16.91,5.31,-3.30
68485,-0.11,0.15,1.21,14.53,0.98,-3.23
68501,-0.09,0.15,1.17,11.72,-5.19,1.10
68517,-0.09,0.14,1.11,8.00,-9.95,5.07
68533,-0.08,0.12,1.08,5.92,-10.68,5.92
68549,-0.06,0.11,1.05,2.26,-9.83,6.53
68565,-0.06,0.10,1.02,-2.81,-7.45,5.49
68581,-0.06,0.10,1.01,-3.78,-5.62,5.19
68597,-0.06,0.08,1.00,1.28,-1.10,5.55
68613,-0.07,0.07,1.06,9.83,3.42,5.98
68629,-0.08,0.08,1.10,11.78,6.53,5.68
68645,-0.09,0.10,1.19,6.96,12.45,2.75
68661,-0.08,0.12,1.26,0.37,16.17,-1.40
68677,-0.08,0.13,1.30,2.38,16.97,-2.20
68693,-0.10,0.15,1.42,16.78,13.18,0.73
68709,-0.10,0.18,1.55,25.27,3.72,6.16
68725,-0.11,0.19,1.59,20.75,-1.59,7.75
68741,-0.13,0.17,1.57,3.23,-12.51,9.46
68757,-0.13,0.13,1.49,-4.64,-22.89,10.93
68773,-0.13,0.11,1.46,-3.17,-27.89,11.78
68789,-0.12,0.10,1.39,1.16,-37.48,10.93
68805,-0.11,0.12,1.32,0.98,-45.72,7.39
68821,-0.09,0.13,1.27,-0.49,-48.28,5.80
68837,-0.07,0.15,1.19,3.17,-50.96,4.94
68853,-0.04,0.16,1.11,7.14,-52.61,6.84
68869,-0.03,0.15,1.07,9.16,-52.06,8.91
68885,0.00,0.14,1.02,9.46,-48.22,14.10
68901,0.01,0.12,1.00,6.41,-42.72,18.80
68917,-0.00,0.10,0.99,2.38,-40.47,19.35
68933,-0.01,0.09,1.00,9.09,-37.11,18.31
68949,-0.00,0.10,1.03,18.49,-36.50,12.39
68965,0.00,0.14,1.06,24.54,-35.58,10.19
68981,0.02,0.20,1.08,24.11,-34.06,8.06
68997,0.01,0.21,1.09,15.69,-38.94,14.40
69013,-0.00,0.19,1.08,11.29,-43.64,19.35
69029,-0.02,0.15,1.03,7.93,-53.28,27.53
69045,-0.03,0.12,1.00,5.86,-60.79,30.33
69061,-0.02,0.09,0.92,4.76,-64.15,30.15
69077,-0.01,0.08,0.85,5.98,-68.91,27.53
69093,-0.00,0.08,0.80,4.64,-71.53,24.84
69109,0.03,0.06,0.71,4.21,-71.41,24.41
69125,0.06,0.05,0.63,-0.24,-69.82,22.46
69141,0.09,0.04,0.59,-4.03,-66.53,19.35
69157,0.13,0.03,0.51,-6.04,-64.64,16.85
69173,0.15,0.03,0.44,-9.34,-57.19,11.90
69189,0.16,0.03,0.41,-11.17,-36.50,9.40
69205,0.18,0.02,0.36,-16.97,-39.79,8.36
69221,0.20,0.01,0.32,-24.60,-24.23,6.29
69237,0.22,0.00,0.31,-28.08,-13.98,5.07
69253,0.22,-0.00,0.32,-30.09,8.36,0.79
69269,0.22,-0.01,0.39,-26.25,26.00,-5.00
69285,0.24,-0.02,0.43,-23.56,31.80,-8.06
69301,0.24,-0.02,0.52,-14.95,37.11,-10.93
69317,0.23,-0.01,0.60,-10.56,39.06,-9.77
69333,0.23,-0.02,0.64,-11.29,39.92,-9.52
69349,0.23,-0.03,0.71,-11.29,41.32,-10.38
69365,0.22,-0.01,0.74,-6.53,40.59,-14.28
69381,0.21,0.02,0.77,0.85,39.55,-17.27
69397,0.18,0.10,0.83,14.16,36.87,-19.53
69413,0.14,0.12,0.87,9.22,33.45,-13.55
69429,0.12,0.12,0.88,2.81,33.45,-9.16
69445,0.10,0.08,0.89,-4.94,36.19,-3.72
69461,0.10,0.07,0.92,-2.08,36.99,-3.72
69477,0.12,0.06,0.93,-0.67,35.22,-4.15
69493,0.12,0.05,0.97,0.85,32.53,-1.95
69509,0.06,0.02,1.00,-5.43,35.58,1.16
69525,0.04,0.01,1.00,-8.91,37.72,1.53
69541,0.03,-0.00,1.02,-15.38,38.51,-3.97
69557,0.08,0.02,1.00,-19.17,34.12,-13.37
69573,0.09,0.03,0.99,-18.68,32.29,-16.17
69589,0.09,0.05,0.97,-10.13,34.85,-15.93
69605,0.05,0.07,1.02,-2.01,42.36,-12.88
69621,0.05,0.07,1.05,-0.37,44.74,-10.80
69637,0.03,0.07,1.10,-2.44,42.18,-9.40
69653,0.01,0.08,1.10,-3.11,32.84,-9.40
69669,0.01,0.08,1.09,-1.34,27.83,-8.61
69685,0.00,0.07,1.06,7.39,20.81,-4.70
69701,-0.02,0.07,1.09,19.23,20.81,-0.73
69717,-0.03,0.08,1.11,20.57,20.69,-0.06
69733,-0.04,0.05,1.14,17.27,20.08,-1.83
69749,-0.01,0.07,1.09,3.60,25.21,-5.98
69765,-0.00,0.12,1.19,26.43,29.36,-0.55
69781,-0.05,0.13,1.23,21.42,21.67,-1.53
69797,-0.05,0.11,1.25,14.28,24.41,1.95
69813,-0.07,0.10,1.26,10.68,24.11,3.85
69829,-0.07,0.10,1.26,10.56,19.41,2.69
69845,-0.07,0.11,1.26,13.73,16.24,1.83
69861,-0.07,0.11,1.26,13.85,14.53,2.44
69877,-0.07,0.09,1.25,8.24,10.01,4.15
69893,-0.06,0.06,1.23,6.10,7.32,4.03
69909,-0.06,0.06,1.24,8.18,6.77,2.81
69925,-0.06,0.09,1.27,11.72,5.55,-0.79
69941,-0.07,0.12,1.28,8.79,2.01,-3.42
69957,-0.07,0.13,1.27,6.84,-1.22,-4.03
69973,-0.06,0.14,1.24,5.86,-10.07,-4.09
69989,-0.06,0.14,1.21,10.38,-18.19,-2.50
70005,-0.06,0.15,1.20,11.11,-20.26,-1.95