time,accel_x,accel_y,accel_z,gyro_x,gyro_y,gyro_z
110022,-0.06,0.02,1.32,1.83,-22.28,5.31
110037,-0.06,0.00,1.29,0.43,-24.48,6.96
110053,-0.05,-0.01,1.28,-1.46,-25.70,6.59
110069,-0.04,-0.02,1.24,-1.53,-27.22,5.49
110085,-0.04,-0.02,1.20,3.17,-26.43,5.07
110101,-0.04,-0.01,1.19,5.49,-25.51,4.64
110117,-0.05,-0.00,1.14,4.39,-23.86,2.32
110133,-0.05,0.01,1.10,0.43,-23.13,1.28
110149,-0.04,0.03,1.11,-1.34,-22.89,0.79
110165,-0.06,0.01,1.07,-4.15,-23.19,1.46
110181,-0.04,-0.02,1.05,2.99,-21.61,4.64
110197,-0.04,-0.03,1.04,8.67,-21.18,5.62
110213,-0.04,-0.04,1.03,13.43,-19.65,4.21
110229,-0.03,-0.02,1.04,14.16,-18.62,-0.18
110245,-0.04,-0.02,1.04,14.59,-19.17,-1.28
110261,-0.04,0.00,1.06,19.41,-21.42,-3.30
110277,-0.04,0.01,1.03,22.77,-25.94,-2.87
110293,-0.02,0.03,1.03,24.66,-27.89,-1.89
110309,0.00,0.04,0.99,26.61,-31.62,-0.61
110325,0.01,0.03,0.96,28.56,-32.17,0.49
110341,0.02,0.04,0.96,28.08,-30.88,0.79
110357,0.02,0.03,0.95,25.15,-28.50,0.49
110373,0.02,0.03,0.94,27.16,-28.08,0.79
110389,0.03,0.04,0.91,28.50,-28.93,0.55
110405,0.03,0.08,0.87,29.30,-31.19,-2.08
110421,0.02,0.09,0.85,24.11,-33.26,-4.76
110437,0.01,0.10,0.80,20.63,-33.69,-4.82
110453,0.03,0.10,0.73,15.75,-33.20,-2.75
110469,0.05,0.09,0.70,14.22,-31.74,-0.43
110485,0.07,0.07,0.61,13.43,-29.91,0.12
110501,0.08,0.06,0.53,13.73,-24.78,-0.49
110517,0.09,0.08,0.50,13.79,-21.42,-1.65
110533,0.08,0.09,0.46,7.81,-13.61,-5.19
110549,0.08,0.12,0.45,1.40,-3.85,-7.02
110565,0.09,0.14,0.47,0.12,0.79,-6.35
110581,0.08,0.15,0.49,-1.59,4.15,-3.48
110597,0.08,0.14,0.49,1.04,5.07,1.95
110613,0.08,0.13,0.50,3.17,6.77,4.46
110629,0.09,0.12,0.52,1.59,9.16,6.47
110645,0.11,0.11,0.56,-5.98,10.99,5.13
110661,0.12,0.10,0.58,-7.93,12.57,4.33
110677,0.14,0.10,0.60,-6.10,15.63,4.94
110693,0.13,0.12,0.64,-2.93,18.19,4.76
110709,0.12,0.12,0.66,-4.09,20.32,5.07
110725,0.09,0.08,0.72,-8.79,28.08,10.38
110741,0.08,0.03,0.79,-5.98,36.99,16.36
110757,0.09,0.02,0.83,-1.22,39.86,16.60
110773,0.06,0.02,0.88,7.14,40.16,12.63
110789,0.05,0.07,0.92,3.11,37.05,3.85
110805,0.04,0.08,0.93,-3.23,35.71,-1.53
110821,-0.01,0.09,0.95,-15.44,37.23,-8.00
110837,-0.04,0.08,1.00,-17.64,44.68,-4.70
110853,-0.04,0.06,1.03,-15.38,47.79,-1.28
110869,-0.05,0.04,1.09,-9.58,50.35,2.87
110885,-0.08,0.02,1.13,-4.27,48.40,2.20
110901,-0.09,0.03,1.15,-4.27,45.29,-0.49
110917,-0.11,0.05,1.17,-10.56,37.60,-8.12
110933,-0.12,0.08,1.19,-18.13,31.98,-13.85
110949,-0.11,0.10,1.20,-18.07,30.03,-13.85
110965,-0.12,0.10,1.20,-17.21,26.92,-9.95
110981,-0.10,0.11,1.17,-8.97,25.82,-3.36
110997,-0.19,0.04,1.09,-13.00,27.04,-1.83
111013,-0.16,0.09,1.26,8.42,29.42,2.93
111029,-0.16,0.04,1.21,-8.61,20.81,-4.82
111045,-0.18,0.03,1.22,-14.83,18.98,-8.73
111061,-0.16,0.06,1.24,-12.08,10.99,-10.01
111077,-0.17,0.09,1.20,-2.87,4.88,-8.24
111093,-0.17,0.10,1.17,-0.98,3.42,-5.74
111109,-0.16,0.10,1.14,-0.06,2.56,0.37
111125,-0.15,0.06,1.11,-2.69,2.20,4.27
111141,-0.15,0.04,1.11,-3.78,1.77,4.33
111157,-0.15,0.03,1.09,-8.00,-1.22,1.04
111173,-0.13,0.05,1.07,-7.75,-2.69,-1.40
111189,-0.13,0.06,1.07,-5.92,-1.83,-1.89
111205,-0.13,0.08,1.08,-3.30,1.46,-0.06
111221,-0.13,0.06,1.07,-5.43,3.60,3.60
111237,-0.13,0.04,1.07,-5.00,4.76,5.00
111253,-0.13,0.03,1.10,-2.44,7.26,5.55
111269,-0.14,0.06,1.15,-3.85,8.42,2.75
111285,-0.14,0.06,1.17,-5.68,8.00,2.20
111301,-0.14,0.06,1.23,-4.09,7.02,4.82
111317,-0.15,0.04,1.29,-2.50,4.39,9.40
111333,-0.15,0.03,1.31,-2.93,1.65,10.62
111349,-0.16,-0.00,1.34,-4.58,-4.52,10.44
111365,-0.15,-0.02,1.35,-3.23,-11.23,9.64
111381,-0.15,-0.01,1.35,-1.16,-14.53,8.61
111397,-0.14,-0.00,1.33,2.14,-21.00,5.86
111413,-0.15,0.01,1.31,3.05,-24.23,4.09
111429,-0.15,0.03,1.31,2.08,-25.57,4.09
111445,-0.15,0.04,1.29,2.01,-28.81,6.90
111461,-0.14,0.03,1.28,3.78,-33.63,10.50
111477,-0.12,0.02,1.24,4.39,-36.01,11.47
111493,-0.10,0.01,1.18,5.55,-40.22,12.02
111509,-0.09,-0.00,1.15,6.29,-42.85,11.05
111525,-0.08,-0.01,1.10,7.02,-42.66,10.19
111541,-0.07,-0.01,1.06,7.02,-40.47,7.81
111557,-0.06,-0.01,1.05,6.59,-37.78,5.68
111573,-0.04,0.00,1.04,7.20,-36.50,5.43
111589,-0.04,0.00,1.02,11.05,-34.24,5.92
111605,-0.04,-0.00,1.02,13.98,-33.02,6.77
111621,-0.03,0.00,1.02,18.62,-31.62,6.90
111637,-0.05,0.01,1.01,20.20,-32.29,4.27
111653,-0.04,0.02,1.02,20.32,-33.26,2.93
111669,-0.03,0.04,1.03,17.52,-37.54,0.55
111685,-0.03,0.05,1.00,14.28,-42.42,-0.73
111701,-0.01,0.06,0.98,13.98,-43.95,-0.92
111717,0.01,0.08,0.94,15.50,-45.35,-1.53
111733,0.04,0.08,0.90,14.28,-43.95,-0.67
111749,0.04,0.08,0.89,12.21,-42.18,0.00
111765,0.06,0.07,0.88,10.25,-37.90,0.61
111781,0.07,0.05,0.86,11.60,-34.91,0.98
111797,0.07,0.05,0.85,13.18,-33.14,1.40
111813,0.08,0.06,0.84,14.47,-29.66,1.16
111829,0.08,0.07,0.82,11.54,-26.98,0.67
111845,0.08,0.06,0.80,9.03,-26.25,0.49
111861,0.08,0.04,0.77,9.03,-24.41,1.65
111877,0.09,0.03,0.72,15.63,-22.40,2.62
111893,0.09,0.03,0.70,18.98,-21.00,2.75
111909,0.10,0.04,0.65,20.32,-18.74,0.31
111925,0.12,0.07,0.61,15.20,-17.70,-4.52
111941,0.11,0.09,0.58,12.02,-16.54,-7.02
111957,0.15,0.14,0.57,7.87,-13.85,-8.85
111973,0.16,0.18,0.54,6.10,-10.80,-5.37
111989,0.15,0.18,0.54,5.00,-9.77,-3.72
112005,0.16,0.17,0.53,0.43,-5.80,1.04
112021,0.17,0.14,0.54,-3.05,2.87,5.49
112037,0.18,0.13,0.56,-5.00,7.39,6.47
112053,0.18,0.12,0.62,-7.45,15.20,6.84
112069,0.15,0.08,0.68,-6.04,21.85,8.97
112085,0.13,0.06,0.72,-4.70,24.78,10.44
112101,0.12,0.03,0.79,-4.15,28.56,10.93
112117,0.10,0.02,0.83,-8.30,25.21,5.13
112133,0.09,0.02,0.84,-9.95,22.83,2.01
112149,0.05,0.02,0.84,-9.22,19.10,-2.56
112165,0.05,0.06,0.85,-6.35,15.87,-4.70
112181,0.06,0.08,0.85,-5.25,14.34,-4.82
112197,0.09,0.14,0.85,-5.92,10.99,-5.49
112213,0.09,0.16,0.84,-11.84,9.83,-4.70
112229,0.07,0.14,0.83,-14.59,11.60,-2.99
112245,0.07,0.12,0.85,-15.87,21.79,2.56
112261,0.08,0.11,0.90,-14.89,34.00,7.51
112277,0.07,0.09,0.93,-14.16,37.78,9.46
112293,0.05,0.06,0.97,-12.51,42.30,11.90
112309,0.00,0.00,1.02,-15.08,45.65,12.27
112325,0.00,-0.01,1.05,-17.21,46.33,10.80
112341,-0.02,-0.02,1.11,-19.59,45.47,5.31
112357,-0.02,0.01,1.16,-15.50,43.03,0.67
112373,-0.01,0.04,1.19,-14.53,41.69,-0.06
112389,-0.03,0.04,1.22,-17.33,37.48,1.28
112405,-0.06,0.01,1.22,-19.78,33.51,5.62
112421,-0.03,0.08,1.21,-16.48,32.10,8.12
112437,-0.06,-0.01,1.29,-8.18,32.65,14.71
112453,-0.06,-0.07,1.21,-9.58,17.94,15.99
112469,-0.06,-0.10,1.21,-11.35,14.83,10.19
112485,-0.05,-0.09,1.21,-12.51,11.90,-3.05
112501,-0.06,-0.05,1.21,-4.64,8.18,-8.24
112517,-0.07,-0.01,1.18,-4.39,8.24,-8.24
112533,-0.07,0.02,1.19,-2.93,11.41,-3.30
112549,-0.06,0.02,1.19,-1.71,10.99,4.33
112565,-0.06,-0.02,1.17,-1.89,9.58,6.04
112581,-0.07,-0.06,1.14,-0.61,5.49,3.91
112597,-0.08,-0.06,1.12,-1.83,1.89,-2.14
112613,-0.09,-0.04,1.08,-2.81,1.40,-5.31
112629,-0.09,0.01,1.06,-3.36,2.38,-8.85
112645,-0.09,0.04,1.05,-4.82,2.56,-9.52
112661,-0.10,0.06,1.04,-5.07,2.87,-6.96
112677,-0.11,0.07,1.06,-6.77,5.13,-2.08
112693,-0.09,0.07,1.08,-7.81,6.65,0.49
112709,-0.09,0.04,1.12,-9.22,9.28,6.59
112725,-0.09,-0.02,1.18,-9.58,9.22,11.35
112741,-0.09,-0.03,1.23,-5.86,8.61,12.70
112757,-0.05,-0.05,1.27,-4.27,3.23,10.74
112773,-0.06,-0.04,1.31,-5.07,-1.53,4.52
112789,-0.07,-0.02,1.33,-5.25,-3.30,2.81
112805,-0.08,-0.02,1.35,-4.82,-5.31,4.52
112821,-0.07,-0.04,1.37,-2.01,-7.93,9.77
112837,-0.07,-0.06,1.37,0.24,-10.50,11.66
112853,-0.08,-0.09,1.35,4.27,-16.36,12.15
112869,-0.08,-0.09,1.32,5.98,-22.09,7.39
112885,-0.09,-0.08,1.30,5.86,-25.21,4.70
112901,-0.09,-0.04,1.25,6.41,-29.91,1.65
112917,-0.08,-0.02,1.21,7.57,-33.45,2.50
112933,-0.07,-0.02,1.19,9.16,-35.10,4.46
112949,-0.05,-0.02,1.14,12.51,-37.35,7.93
112965,-0.05,-0.03,1.10,10.68,-36.80,8.36
112981,-0.04,-0.03,1.09,6.29,-36.01,7.39
112997,-0.01,-0.03,1.06,0.79,-32.96,5.49
113013,0.00,-0.04,1.03,2.69,-29.17,5.07
113029,-0.00,-0.04,1.03,5.62,-26.67,5.62
113045,-0.01,-0.05,1.03,10.19,-21.00,7.39
113061,-0.02,-0.05,1.02,18.13,-17.03,8.36
113077,-0.02,-0.05,1.03,23.44,-16.24,8.18
113093,-0.03,-0.04,1.05,28.20,-16.54,7.26
113109,-0.02,-0.03,1.05,25.51,-21.36,2.26
113125,-0.02,-0.02,1.04,24.11,-24.72,-1.04
113141,-0.03,0.01,1.01,21.24,-30.76,-6.53
113157,-0.04,0.04,0.98,24.41,-32.35,-7.57
113173,-0.03,0.06,0.97,26.73,-32.17,-5.74
113189,-0.02,0.08,0.96,26.37,-33.75,-1.46
113205,-0.00,0.08,0.93,19.65,-37.66,-2.01
113221,0.01,0.08,0.90,18.37,-39.31,-2.14
113237,0.03,0.08,0.83,22.95,-39.79,0.73
113253,0.06,0.07,0.77,29.17,-35.46,5.31
113269,0.06,0.05,0.75,30.94,-31.68,7.20
113285,0.10,0.06,0.73,31.98,-22.83,8.06
113301,0.10,0.10,0.72,30.27,-17.15,5.00
113317,0.10,0.10,0.72,26.00,-16.30,4.33
113333,0.08,0.09,0.68,15.99,-14.65,4.33
113349,0.09,0.08,0.65,14.10,-11.29,5.25
113365,0.10,0.08,0.64,14.40,-10.01,5.62
113381,0.10,0.10,0.63,11.54,-8.30,5.37
113397,0.14,0.11,0.62,2.62,-10.62,4.27
113413,0.12,0.11,0.60,0.18,-12.39,3.48
113429,0.14,0.11,0.57,-1.34,-13.92,3.97
113445,0.12,0.09,0.55,-5.62,-11.41,4.82
113461,0.14,0.08,0.55,-6.77,-8.67,5.19
113477,0.16,0.06,0.58,-9.64,-1.77,6.84
113493,0.17,0.05,0.61,-12.88,1.83,3.17
113509,0.17,0.06,0.62,-11.90,3.23,-0.37
113525,0.15,0.09,0.65,-5.43,7.26,-3.36
113541,0.14,0.10,0.71,-0.43,14.04,-1.04
113557,0.12,0.11,0.75,-0.24,18.01,1.10
113573,0.11,0.12,0.82,-4.64,22.22,3.66
113589,0.10,0.10,0.83,-7.32,20.57,5.55
113605,0.10,0.08,0.84,-5.68,19.65,6.65
113621,0.08,0.08,0.85,-0.67,19.78,7.69
113637,0.10,0.10,0.85,-0.06,20.75,8.61
113653,0.11,0.10,0.84,0.49,21.61,8.79
113669,0.10,0.11,0.86,0.79,26.06,8.91
113685,0.08,0.10,0.89,-1.65,45.35,8.54
113701,0.06,0.09,0.94,-11.35,37.41,8.12
113717,0.03,0.06,0.99,-16.54,41.87,8.18
113733,0.02,0.05,1.02,-15.81,43.40,8.79
113749,-0.00,0.07,1.08,-14.16,43.64,7.51
113765,-0.01,0.09,1.13,-19.41,37.90,3.30
113781,-0.02,0.09,1.14,-23.13,33.87,1.04
113797,-0.04,0.07,1.15,-22.89,28.99,1.28
113813,-0.06,0.03,1.16,-18.55,27.95,6.47
113829,-0.06,0.01,1.17,-16.05,27.95,9.70
113845,-0.04,-0.02,1.18,-12.27,26.18,11.90
113861,-0.03,-0.03,1.18,-13.73,20.87,6.96
113877,-0.02,-0.06,1.19,-13.67,17.46,3.54
113893,-0.04,-0.01,1.16,-16.72,14.71,-3.11
113909,-0.07,-0.01,1.15,0.79,9.22,-0.49
113925,-0.06,-0.04,1.10,-2.69,8.48,-2.20
113941,-0.04,-0.02,1.13,-5.13,13.98,-5.13
113957,-0.03,0.01,1.13,-0.49,13.73,-2.75
113973,-0.03,0.02,1.12,-0.18,12.57,-2.99
113989,-0.05,0.02,1.09,-3.97,11.54,-5.31
114005,-0.08,0.02,1.09,-4.03,14.16,-5.31
114021,-0.07,0.02,1.11,-4.70,16.66,-4.39
114037,-0.07,0.02,1.15,-5.86,18.19,-2.08
114053,-0.07,0.02,1.16,-3.11,14.10,-0.06
114069,-0.08,0.02,1.16,-2.50,11.84,0.55
114085,-0.10,0.01,1.15,-3.30,9.28,2.01
114101,-0.08,-0.00,1.15,-5.00,7.51,0.98
114117,-0.08,0.00,1.16,-5.19,6.59,-0.49
114133,-0.08,0.00,1.17,-5.31,5.00,-2.08
114149,-0.08,-0.01,1.19,-3.66,5.49,-0.06
114165,-0.07,-0.01,1.21,-1.95,5.62,1.04
114181,-0.07,-0.01,1.25,1.22,4.58,2.01
114197,-0.07,-0.01,1.29,2.93,3.17,1.89
114213,-0.08,-0.00,1.30,1.53,2.08,0.79
114229,-0.09,-0.00,1.33,-0.79,-2.20,-0.24
114245,-0.10,-0.01,1.33,0.61,-8.12,2.44
114261,-0.09,-0.02,1.32,2.38,-11.90,3.85
114277,-0.09,-0.02,1.28,3.11,-19.90,4.09
114293,-0.08,-0.01,1.23,1.34,-25.45,2.01
114309,-0.07,-0.00,1.20,0.00,-27.22,0.67
114325,-0.07,0.00,1.16,-2.32,-28.44,0.18
114341,-0.06,-0.00,1.12,-2.01,-26.49,2.81
114357,-0.05,-0.01,1.12,-0.49,-25.21,4.03
114373,-0.05,-0.02,1.10,0.24,-24.17,5.19
114389,-0.05,-0.04,1.08,-0.31,-23.93,4.03
114405,-0.05,-0.04,1.07,0.79,-23.38,2.93
114421,-0.05,-0.02,1.08,3.30,-22.58,0.79
114437,-0.06,-0.01,1.10,5.92,-22.58,0.79
114453,-0.06,-0.01,1.11,7.02,-23.50,1.53
114469,-0.04,-0.01,1.11,11.47,-26.98,3.60
114485,-0.03,-0.01,1.11,13.98,-30.76,5.31
114501,-0.02,-0.01,1.10,12.70,-32.53,5.00
114517,-0.02,-0.04,1.09,9.95,-34.73,4.03
114533,-0.00,-0.04,1.10,13.49,-35.77,2.87
114549,-0.01,-0.04,1.09,16.91,-36.93,1.83
114565,-0.00,-0.01,1.07,21.91,-39.55,0.43
114581,0.00,0.01,1.03,21.67,-42.48,-0.06
114597,0.02,0.02,1.00,20.45,-43.27,-0.67
114613,0.04,0.02,0.96,18.49,-40.47,-0.92
114629,0.05,0.03,0.94,18.68,-35.10,-0.43
114645,0.06,0.03,0.92,19.65,-32.65,-0.37
114661,0.07,0.04,0.90,23.80,-28.87,-0.37
114677,0.07,0.04,0.89,28.44,-24.78,1.34
114693,0.08,0.05,0.88,29.60,-22.77,2.14
114709,0.06,0.07,0.87,26.06,-21.48,0.79
114725,0.06,0.08,0.87,19.29,-22.71,-2.20
114741,0.04,0.09,0.83,17.27,-23.93,-2.69
114757,0.04,0.09,0.77,15.32,-26.73,-1.65
114773,0.06,0.10,0.74,15.63,-28.26,-1.16
114789,0.08,0.11,0.68,11.05,-29.97,-0.31
114805,0.09,0.10,0.61,4.64,-30.09,-0.49
114821,0.11,0.10,0.57,2.50,-29.36,-0.06
114837,0.11,0.09,0.50,5.74,-25.70,2.20
114853,0.14,0.09,0.46,8.12,-18.55,5.74
114869,0.15,0.11,0.46,6.96,-13.98,6.16
114885,0.18,0.13,0.47,2.56,-4.88,2.81
114901,0.16,0.11,0.49,-1.34,2.14,2.81
114917,0.16,0.11,0.51,-1.28,5.62,4.88
114933,0.18,0.10,0.56,1.71,14.16,9.34
114949,0.19,0.09,0.63,3.30,21.42,9.83
114965,0.18,0.08,0.68,2.99,24.48,9.58
114981,0.15,0.07,0.75,0.49,28.26,7.87
114997,0.13,0.06,0.82,-0.06,28.14,6.77
115013,0.11,0.07,0.85,0.55,27.89,6.77
115029,0.12,0.08,0.89,-0.98,26.12,5.98
115045,0.13,0.10,0.91,-5.37,22.40,3.36
115061,0.13,0.11,0.92,-7.75,19.78,1.77
115077,0.11,0.10,0.92,-12.45,15.87,0.24
115093,0.09,0.08,0.91,-12.94,17.21,2.50
115109,0.10,0.06,0.91,-10.86,19.96,4.70
115125,0.10,0.03,0.94,-3.17,27.40,10.38
115141,0.12,0.04,0.97,0.24,29.66,7.87
115157,0.12,0.06,0.98,-2.20,28.81,3.11
115173,0.07,0.08,0.99,-10.56,27.22,-7.14
115189,0.03,0.07,1.01,-15.69,31.43,-7.02
115205,0.03,0.06,1.03,-13.55,35.10,-3.05
115221,0.03,0.04,1.08,-5.07,38.45,3.91
115237,0.02,0.02,1.10,-3.97,34.79,3.17
115253,0.01,0.03,1.10,-6.04,32.17,-0.18
115269,-0.02,0.05,1.11,-11.84,26.67,-5.80
115285,-0.04,0.06,1.11,-15.99,22.22,-6.59
115301,-0.04,0.06,1.11,-16.36,20.81,-5.19
115317,-0.04,0.04,1.10,-12.39,19.96,1.16
115333,-0.02,0.03,1.10,-8.91,17.27,4.09
115349,-0.04,0.02,1.09,-9.95,15.93,4.27
115365,-0.04,0.00,1.08,-14.53,13.31,0.49
115381,-0.04,-0.00,1.07,-13.79,12.39,-1.65
115397,-0.04,-0.03,1.08,-11.66,12.45,-1.59
115413,-0.04,-0.00,1.07,-11.90,12.88,-2.69
115429,-0.05,0.01,1.10,-6.29,10.19,-2.50
115445,-0.05,0.00,1.09,-10.62,9.16,-3.97
115461,-0.06,-0.00,1.10,-16.48,8.61,-6.41
115477,-0.06,-0.01,1.12,-10.13,9.95,-3.11
115493,-0.05,-0.00,1.12,-7.08,11.05,-1.46
115509,-0.06,0.02,1.15,-5.43,11.72,-2.44
115525,-0.07,0.02,1.15,-10.80,8.12,-3.36
115541,-0.07,0.02,1.15,-12.76,6.29,-2.99
115557,-0.07,-0.01,1.14,-13.43,4.52,-0.61
115573,-0.06,-0.03,1.13,-9.46,3.91,1.28
115589,-0.06,-0.02,1.13,-7.75,3.66,0.92
115605,-0.06,-0.01,1.14,-6.04,3.72,-1.04
115621,-0.05,-0.00,1.17,-6.23,5.31,1.16
115637,-0.05,-0.02,1.19,-7.32,6.04,2.75
115653,-0.05,-0.05,1.22,-5.55,6.35,6.16
115669,-0.05,-0.06,1.23,-1.04,3.91,7.51
115685,-0.05,-0.06,1.27,-0.12,2.50,6.84
115701,-0.05,-0.06,1.29,-1.10,-0.67,4.94
115717,-0.06,-0.07,1.30,-0.43,-2.56,4.33
115733,-0.07,-0.06,1.34,0.12,-3.30,4.33
115749,-0.07,-0.07,1.36,1.40,-7.57,4.76
115765,-0.07,-0.06,1.36,2.87,-13.31,3.54
115781,-0.06,-0.05,1.34,4.15,-16.54,3.30
115797,-0.07,-0.06,1.30,8.48,-21.24,5.19
115813,-0.07,-0.06,1.28,10.19,-22.22,7.08
115829,-0.07,-0.06,1.25,10.56,-22.95,7.08
115845,-0.07,-0.06,1.21,7.57,-24.78,5.49
115861,-0.06,-0.05,1.19,5.98,-25.88,4.33
115877,-0.06,-0.04,1.12,2.99,-27.04,2.81
115893,-0.03,-0.03,1.06,2.81,-25.82,2.14
115909,-0.03,-0.04,1.05,4.76,-25.27,2.20
115925,-0.03,-0.05,1.03,12.02,-23.93,4.39
115941,-0.03,-0.06,1.01,17.82,-22.40,6.04
115957,-0.02,-0.06,1.00,19.59,-21.67,5.25
115973,-0.01,-0.05,0.99,17.03,-20.69,1.10
115989,0.00,-0.03,1.00,16.17,-19.04,-2.75
116005,-0.01,-0.03,1.01,17.03,-18.01,-3.54
116021,-0.01,-0.02,1.02,18.55,-19.10,-3.48
116037,-0.03,-0.02,1.02,26.12,-22.16,-2.62
116053,-0.05,-0.02,1.03,29.54,-23.38,-2.38
116069,-0.05,-0.00,1.03,28.50,-26.67,-3.42
116085,-0.04,0.02,1.01,18.62,-34.30,-9.34
116101,-0.03,0.03,0.99,15.08,-37.84,-12.39
116117,-0.02,0.09,0.94,16.30,-42.11,-15.87
116133,-0.01,0.13,0.87,20.26,-45.04,-12.94
116149,-0.00,0.14,0.84,21.67,-45.35,-9.95
116165,0.02,0.14,0.79,23.13,-42.54,-3.48
116181,0.05,0.12,0.76,23.13,-37.29,4.09
116197,0.06,0.10,0.74,23.01,-34.61,7.14
116213,0.07,0.06,0.70,19.47,-31.07,8.85
116229,0.09,0.04,0.65,14.04,-27.95,5.86
116245,0.10,0.04,0.63,10.99,-26.43,3.42
116261,0.12,0.05,0.57,7.39,-22.71,-0.61
116277,0.13,0.08,0.53,4.94,-16.17,-2.62
116293,0.14,0.09,0.53,5.31,-12.88,-3.17
116309,0.14,0.13,0.52,5.19,-5.43,-3.30
116325,0.14,0.14,0.52,3.66,0.98,-0.49
116341,0.15,0.14,0.53,2.99,4.70,1.83
116357,0.15,0.13,0.56,0.43,12.02,6.84
116373,0.15,0.09,0.60,-4.15,17.70,9.70
116389,0.15,0.09,0.62,-5.55,19.71,9.58
116405,0.15,0.09,0.68,-5.25,21.30,6.29
116421,0.13,0.08,0.74,-5.13,22.77,5.68
116437,0.11,0.07,0.77,-7.32,24.48,6.35
116453,0.11,0.02,0.85,-12.21,28.14,9.46
116469,0.11,-0.01,0.93,-8.85,29.11,11.29
116485,0.12,0.00,0.96,-5.49,27.71,11.17
116501,0.12,0.05,0.98,-2.38,19.17,5.31
116517,0.06,0.09,0.94,-3.78,9.70,-2.69
116533,0.06,0.12,0.92,-4.33,8.06,-4.39
116549,0.05,0.13,0.90,-8.00,12.02,-0.67
116565,0.05,0.10,0.92,-10.99,23.01,7.32
116581,0.04,0.07,0.94,-12.02,27.89,10.56
116597,0.03,0.03,0.97,-10.68,32.53,10.01
116613,0.01,0.04,0.99,-5.13,33.02,2.38
116629,-0.00,0.06,1.00,-5.55,32.53,-1.40
116645,-0.03,0.07,1.03,-10.01,34.85,-4.52
116661,-0.05,0.07,1.08,-12.70,37.41,-1.65
116677,-0.06,0.06,1.10,-12.45,35.89,0.31
116693,-0.08,0.04,1.11,-9.16,28.44,1.77
116709,-0.09,0.04,1.08,-5.80,21.30,1.04
116725,-0.08,0.05,1.07,-5.68,19.17,0.31
116741,-0.08,0.06,1.08,-10.62,18.13,-1.77
116757,-0.08,0.07,1.10,-17.82,15.93,-1.28
116773,-0.07,0.06,1.11,-20.20,13.18,0.00
116789,-0.04,0.03,1.13,-16.05,9.28,4.27
116805,-0.07,-0.00,1.06,-12.02,11.35,8.24
116821,-0.04,0.01,1.17,-3.23,11.05,10.25
116837,-0.04,-0.05,1.13,-13.61,9.64,4.94
116853,-0.05,-0.03,1.14,-16.54,11.17,-1.83
116869,-0.04,-0.01,1.16,-12.21,11.29,-1.59
116885,-0.04,0.00,1.16,-4.70,13.12,1.95
116901,-0.04,-0.00,1.19,-4.82,15.32,3.54
116917,-0.04,-0.03,1.24,-9.83,18.80,7.39
116933,-0.03,-0.06,1.27,-7.69,17.03,8.24
116949,-0.04,-0.08,1.28,-6.71,13.98,7.63
116965,-0.04,-0.08,1.26,-1.65,5.19,4.39
116981,-0.03,-0.05,1.24,-1.83,-0.43,-0.67
116997,-0.03,-0.04,1.24,-2.50,-1.40,-1.77
117013,-0.02,-0.03,1.24,-1.95,-0.92,0.67
117029,-0.03,-0.04,1.27,1.46,0.31,4.03
117045,-0.03,-0.05,1.29,1.22,0.67,5.62
117061,-0.04,-0.07,1.31,-0.24,-0.24,6.96
117077,-0.06,-0.07,1.33,0.85,-3.17,5.49
117093,-0.07,-0.07,1.34,-1.10,-5.43,3.97
117109,-0.09,-0.07,1.34,-3.30,-12.88,1.59
117125,-0.09,-0.06,1.32,-0.12,-19.65,2.38
117141,-0.09,-0.06,1.30,2.75,-23.62,3.97
117157,-0.08,-0.06,1.24,6.84,-31.49,6.59
117173,-0.06,-0.06,1.17,6.90,-35.89,6.47
117189,-0.05,-0.06,1.14,5.37,-36.68,5.43
117205,-0.03,-0.05,1.08,3.91,-36.38,2.69
117221,-0.01,-0.03,1.04,4.64,-34.55,0.85
117237,-0.01,-0.03,1.03,6.16,-32.59,1.04
117253,-0.01,-0.04,1.02,8.00,-26.43,2.93
117269,-0.01,-0.05,1.03,12.76,-20.20,4.82
117285,-0.01,-0.05,1.05,15.63,-18.37,5.25
117301,-0.02,-0.03,1.07,18.01,-18.86,3.30
117317,-0.03,-0.01,1.06,17.27,-23.74,0.49
117333,-0.03,-0.01,1.06,17.82,-26.67,-0.61
117349,-0.02,0.01,1.05,19.17,-30.94,-2.01
117365,-0.02,0.02,1.04,18.37,-32.96,-1.40
117381,-0.01,0.02,1.04,17.94,-34.00,-0.43
117397,0.01,0.01,1.03,19.71,-35.64,1.53
117413,0.03,0.01,1.02,21.91,-38.02,1.40
117429,0.04,0.02,1.01,21.36,-39.92,0.49
117445,0.04,0.03,0.97,17.82,-43.40,-2.56
117461,0.06,0.06,0.92,16.97,-43.33,-4.27
117477,0.07,0.07,0.90,17.94,-42.24,-3.78
117493,0.09,0.08,0.87,21.48,-39.00,0.49
117509,0.10,0.06,0.84,24.11,-34.30,4.70
117525,0.11,0.06,0.83,24.05,-31.62,4.94
117541,0.12,0.06,0.80,22.22,-27.28,2.87
117557,0.11,0.07,0.77,21.30,-22.40,1.16
117573,0.11,0.08,0.76,19.78,-20.20,0.31
117589,0.11,0.10,0.73,15.32,-17.27,-0.55
117605,0.10,0.12,0.70,12.02,-15.56,-0.49
117621,0.10,0.11,0.69,11.23,-14.83,0.49
117637,0.11,0.11,0.65,12.82,-13.92,3.72
117653,0.12,0.11,0.62,12.70,-12.27,5.13
117669,0.12,0.11,0.60,11.29,-11.41,5.00
117685,0.12,0.11,0.58,8.85,-7.75,3.91
117701,0.13,0.12,0.57,7.32,-2.20,2.50
117717,0.14,0.14,0.58,5.74,0.24,2.14
117733,0.13,0.15,0.59,1.22,4.21,2.20
117749,0.13,0.15,0.62,-4.33,8.12,3.78
117765,0.14,0.14,0.64,-5.62,10.68,6.04
117781,0.15,0.12,0.68,-5.68,15.08,10.01
117797,0.15,0.11,0.70,-6.90,17.46,11.66
117813,0.14,0.08,0.72,-8.48,18.55,11.96
117829,0.14,0.06,0.74,-10.68,20.39,11.11
117845,0.13,0.05,0.76,-12.94,22.28,8.18
117861,0.14,0.05,0.81,-14.10,23.56,7.45
117877,0.14,0.04,0.85,-14.34,25.70,6.59
117893,0.14,0.05,0.87,-9.46,26.98,4.64
117909,0.13,0.07,0.89,-6.23,27.22,3.85
117925,0.09,0.10,0.91,-5.98,28.75,2.99
117941,0.07,0.11,0.93,-9.77,29.91,2.93
117957,0.06,0.09,0.98,-22.83,32.71,5.43
117973,0.07,0.03,1.02,-30.21,34.73,9.95
117989,0.06,-0.00,1.03,-28.08,34.97,11.96
118005,0.05,-0.04,1.06,-17.58,33.75,11.84
118021,0.01,-0.03,1.08,-8.48,31.80,6.65
118037,0.00,-0.02,1.09,-8.48,31.43,4.09
118053,0.01,0.00,1.11,-14.22,30.09,1.59
118069,0.02,-0.00,1.13,-19.35,26.00,1.59
118085,0.03,-0.00,1.12,-20.14,22.77,1.53
118101,-0.00,-0.03,1.10,-17.27,18.43,0.67
118117,-0.02,-0.02,1.08,-14.59,18.13,0.00
118133,-0.02,-0.02,1.08,-14.28,18.80,0.43
118149,-0.02,-0.02,1.11,-14.65,20.57,1.83
118165,-0.02,-0.04,1.15,-11.60,19.90,4.88
118181,-0.03,-0.03,1.14,-9.03,17.82,5.74
118197,-0.04,-0.06,1.21,1.34,15.56,6.10
118213,-0.02,-0.07,1.14,-4.27,6.47,2.08
118229,-0.02,-0.06,1.13,-4.58,3.72,-2.32
118245,-0.01,-0.02,1.09,-9.77,0.79,-6.47
118261,-0.02,-0.02,1.05,-9.58,0.24,-3.97
118277,-0.04,-0.03,1.03,-9.03,1.40,-1.83
118293,-0.03,-0.04,1.03,-6.41,4.46,1.83
118309,-0.01,-0.03,1.03,-9.83,5.00,-0.49
118325,-0.02,-0.02,1.03,-11.29,5.49,-2.81
118341,-0.03,-0.01,1.04,-12.76,8.00,-4.76
118357,-0.04,-0.02,1.07,-7.26,12.63,0.73
118373,-0.04,-0.03,1.09,-5.86,15.32,4.39
118389,-0.03,-0.05,1.14,-5.92,17.33,8.12
118405,-0.05,-0.06,1.15,-7.69,14.65,7.93
118421,-0.01,-0.07,1.16,-5.92,13.31,6.47
118437,-0.03,-0.10,1.19,-8.79,12.08,7.02
118453,-0.03,-0.10,1.26,-2.75,14.53,5.31
118469,-0.04,-0.11,1.29,-2.69,14.77,5.37
118485,-0.05,-0.12,1.36,-0.12,13.98,5.74
118501,-0.06,-0.12,1.42,2.56,9.03,4.64
118517,-0.07,-0.12,1.43,2.62,5.62,3.48
118533,-0.08,-0.10,1.45,1.34,-4.03,1.04
118549,-0.09,-0.10,1.43,2.32,-16.54,0.61
118565,-0.08,-0.09,1.40,5.13,-22.71,1.46
118581,-0.07,-0.09,1.33,8.00,-31.19,2.69
118597,-0.05,-0.09,1.26,8.18,-35.03,3.54
118613,-0.05,-0.09,1.22,8.42,-35.58,3.78
118629,-0.04,-0.08,1.17,10.13,-33.33,3.91
118645,-0.02,-0.08,1.15,13.00,-28.75,5.00
118661,-0.03,-0.08,1.15,13.79,-27.04,4.82
118677,-0.03,-0.09,1.14,10.68,-25.63,4.09
118693,-0.05,-0.09,1.14,10.56,-25.82,2.50
118709,-0.05,-0.09,1.13,12.45,-27.04,1.46
118725,-0.05,-0.08,1.10,19.59,-31.01,1.89
118741,-0.04,-0.05,1.06,25.51,-35.71,1.89
118757,-0.04,-0.04,1.03,26.25,-38.09,1.46
118773,-0.03,-0.04,0.98,26.25,-40.34,0.06
118789,-0.01,-0.03,0.96,27.34,-38.33,-1.71
118805,-0.00,-0.01,0.95,27.34,-36.80,-2.38
118821,0.01,-0.00,0.94,25.02,-35.58,-4.33
118837,0.01,0.01,0.93,25.45,-33.69,-4.70
118853,0.04,0.03,0.92,27.47,-32.47,-4.39
118869,0.03,0.03,0.90,31.74,-31.13,-4.03
118885,0.03,0.04,0.90,31.31,-29.66,-1.65
118901,0.04,0.04,0.88,29.48,-29.66,-1.46
118917,0.05,0.04,0.86,26.00,-29.85,-2.08
118933,0.07,0.05,0.85,23.86,-30.27,-2.87
118949,0.09,0.06,0.81,24.17,-29.79,-2.08
118965,0.10,0.06,0.78,26.00,-27.71,-0.67
118981,0.11,0.08,0.76,26.55,-26.12,-2.38
118997,0.12,0.10,0.72,21.85,-23.50,-3.30
119013,0.12,0.10,0.68,15.63,-20.02,-4.15
119029,0.13,0.11,0.66,13.73,-18.31,-4.64
119045,0.13,0.12,0.64,10.50,-13.73,-3.91
119061,0.13,0.14,0.62,8.00,-10.68,-4.27
119077,0.13,0.15,0.61,6.41,-9.52,-4.94
119093,0.13,0.16,0.59,3.05,-4.64,-3.11
119109,0.13,0.16,0.58,-1.22,0.85,-0.49
119125,0.13,0.15,0.58,-2.44,2.81,0.79
119141,0.14,0.15,0.59,-4.46,6.90,4.09
119157,0.15,0.13,0.62,-5.86,10.07,4.94
119173,0.15,0.12,0.64,-6.59,12.02,5.43
119189,0.16,0.10,0.68,-8.79,15.75,7.14
119205,0.16,0.09,0.73,-9.34,18.80,7.20
119221,0.15,0.08,0.75,-9.09,19.78,7.14
119237,0.14,0.06,0.79,-7.69,21.97,7.14
119253,0.14,0.07,0.82,-5.19,22.58,6.47
119269,0.13,0.07,0.83,-4.27,21.91,5.98
119285,0.11,0.07,0.85,-4.21,22.77,5.80
119301,0.11,0.06,0.87,-8.00,26.06,5.74
119317,0.10,0.06,0.87,-9.40,27.77,4.82
119333,0.07,0.05,0.89,-11.47,31.07,1.59
119349,0.04,0.05,0.92,-12.27,33.87,-2.99
119365,0.02,0.06,0.94,-12.27,35.40,-5.68
119381,-0.01,0.08,0.99,-8.85,37.90,-6.23
119397,-0.00,0.08,1.02,-5.74,38.02,0.18
119413,0.00,0.07,1.04,-5.37,36.56,2.81
119429,0.02,0.07,1.07,-5.37,31.49,2.69
119445,-0.01,0.05,1.07,-8.73,25.15,-1.16
119461,-0.03,0.05,1.07,-10.44,23.13,-3.11
119477,-0.03,0.06,1.07,-11.47,22.28,-4.70
119493,-0.05,0.05,1.09,-13.06,22.09,-1.95
119509,-0.04,0.05,1.09,-14.22,22.03,-0.24
119525,-0.07,0.03,1.10,-15.81,21.36,2.20
119541,-0.07,-0.00,1.10,-16.78,16.85,2.14
119557,-0.09,-0.04,1.12,-15.01,14.40,1.16
119573,-0.08,0.01,1.12,-13.67,13.98,0.61
119589,-0.07,0.04,1.14,-2.20,7.75,2.99
119605,-0.04,0.00,1.11,-11.35,4.70,1.40
119621,-0.04,0.00,1.11,-18.19,3.85,-2.56
119637,-0.06,-0.02,1.09,-13.43,2.81,-0.79
119653,-0.07,-0.02,1.08,-11.17,4.33,0.92
119669,-0.07,-0.01,1.09,-4.52,9.28,2.87
119685,-0.05,0.01,1.12,-3.54,11.90,2.01
119701,-0.05,0.01,1.13,-5.19,12.45,1.65
119717,-0.05,0.01,1.14,-9.22,11.54,1.40
119733,-0.06,-0.02,1.14,-12.82,9.95,1.34
119749,-0.06,-0.03,1.14,-10.44,10.44,2.20
119765,-0.06,-0.03,1.14,-5.07,12.21,3.36
119781,-0.06,-0.04,1.16,-6.10,12.57,3.72
119797,-0.07,-0.05,1.18,-7.14,12.08,3.60
119813,-0.11,-0.09,1.24,-5.62,12.15,2.50
119829,-0.09,0.01,1.34,8.61,19.10,-0.98
119845,-0.08,0.02,1.36,1.65,12.27,0.12
119861,-0.07,-0.01,1.32,-4.76,-5.74,5.19
119877,-0.03,-0.05,1.24,1.59,-19.10,9.46
119893,-0.05,-0.06,1.21,2.93,-21.79,10.38
119909,-0.03,-0.06,1.20,2.69,-18.37,7.57
119925,-0.03,-0.06,1.21,-4.03,-11.60,3.05
119941,-0.03,-0.06,1.25,-5.31,-9.28,2.32
119957,-0.04,-0.06,1.28,-2.93,-8.61,3.78
119973,-0.05,-0.07,1.29,1.16,-11.35,5.98
119989,-0.05,-0.07,1.29,2.93,-13.98,6.10
120005,-0.06,-0.06,1.25,5.62,-20.69,5.13