time,accel_x,accel_y,accel_z,gyro_x,gyro_y,gyro_z
40022,-0.03,0.11,1.04,0.92,25.57,-1.40
40037,-0.05,0.09,1.15,19.71,38.15,6.35
40053,-0.07,0.06,1.16,7.08,34.42,1.22
40069,-0.07,0.08,1.19,11.66,35.28,0.06
40085,-0.09,0.09,1.19,7.39,29.54,0.18
40101,-0.08,0.10,1.16,4.03,17.27,0.12
40117,-0.08,0.09,1.16,5.13,13.49,0.49
40133,-0.07,0.08,1.17,7.02,12.21,3.48
40149,-0.08,0.06,1.17,5.55,15.69,4.39
40165,-0.08,0.06,1.17,5.19,17.03,3.23
40181,-0.10,0.06,1.15,4.39,15.50,-0.73
40197,-0.11,0.07,1.14,6.10,13.24,-2.14
40213,-0.10,0.07,1.14,6.23,13.06,-1.71
40229,-0.08,0.07,1.16,4.58,15.38,-1.46
40245,-0.09,0.08,1.18,-1.04,18.80,-2.44
40261,-0.09,0.09,1.18,-4.03,19.65,-3.78
40277,-0.10,0.12,1.21,-6.59,16.85,-4.39
40293,-0.09,0.12,1.26,-2.26,10.93,-1.71
40309,-0.10,0.11,1.29,2.75,7.26,-0.43
40325,-0.11,0.13,1.37,15.87,2.62,0.00
40341,-0.15,0.20,1.47,23.93,3.48,-2.75
40357,-0.17,0.24,1.52,23.32,3.42,-4.39
40373,-0.18,0.28,1.56,9.58,-1.89,-3.17
40389,-0.19,0.25,1.52,-10.56,-13.61,5.55
40405,-0.21,0.22,1.48,-18.01,-21.42,10.86
40421,-0.19,0.12,1.38,-22.52,-38.27,20.81
40437,-0.18,0.05,1.27,-15.87,-52.61,23.68
40453,-0.16,0.04,1.23,-10.38,-57.19,21.97
40469,-0.13,0.04,1.13,-5.07,-60.67,15.99
40485,-0.12,0.05,1.09,-9.46,-55.91,12.08
40501,-0.09,0.06,1.01,-14.71,-50.66,11.35
40517,-0.04,0.06,0.95,-23.32,-36.13,10.44
40533,-0.03,0.05,0.93,-25.57,-22.03,9.34
40549,-0.03,0.03,0.92,-22.77,-18.13,9.40
40565,-0.03,0.02,0.94,-11.96,-13.73,10.80
40581,-0.01,-0.00,0.96,-0.49,-15.08,12.27
40597,-0.02,-0.01,1.00,4.09,-16.97,12.21
40613,-0.04,-0.00,1.02,9.28,-22.16,10.44
40629,-0.03,0.00,1.02,8.85,-26.37,9.70
40645,-0.04,0.00,0.98,7.51,-36.25,10.31
40661,-0.03,-0.00,0.93,8.79,-45.78,12.39
40677,-0.02,-0.00,0.90,9.16,-49.62,12.94
40693,-0.01,-0.01,0.86,10.62,-55.36,13.00
40709,-0.00,-0.01,0.81,9.28,-56.82,12.39
40725,0.01,-0.02,0.79,6.29,-55.97,11.96
40741,0.04,-0.03,0.75,0.18,-51.94,9.95
40757,0.06,-0.04,0.72,-1.65,-45.59,7.75
40773,0.06,-0.04,0.71,-1.46,-42.72,6.84
40789,0.07,-0.04,0.70,0.67,-36.68,4.70
40805,0.07,-0.02,0.67,-0.06,-33.33,1.46
40821,0.07,-0.01,0.65,-1.77,-32.90,0.24
40837,0.11,-0.01,0.61,-7.51,-30.70,-1.89
40853,0.16,-0.01,0.57,-13.06,-26.55,-2.93
40869,0.16,-0.01,0.54,-13.98,-23.01,-3.66
40885,0.18,-0.01,0.50,-14.34,-15.20,-3.91
40901,0.18,-0.02,0.50,-11.11,-7.32,-2.14
40917,0.17,-0.03,0.51,-9.09,-2.75,-1.10
40933,0.16,-0.04,0.56,-6.04,7.51,-1.10
40949,0.19,-0.05,0.63,-3.36,15.56,-6.29
40965,0.20,-0.05,0.66,-4.15,16.30,-9.28
40981,0.20,-0.08,0.73,-3.48,15.75,-11.60
40997,0.17,-0.06,0.83,4.21,16.91,-14.04
41013,0.15,-0.03,0.88,4.82,14.34,-17.09
41029,0.12,0.03,0.90,-6.04,2.14,-23.56
41045,0.17,0.06,0.82,-15.56,-8.85,-24.78
41061,0.19,0.07,0.78,-11.60,-9.83,-22.40
41077,0.19,0.07,0.76,13.06,-2.56,-11.66
41093,0.15,0.10,0.84,34.18,10.38,-0.98
41109,0.14,0.11,0.89,33.45,17.21,1.46
41125,0.16,0.10,0.95,11.29,29.60,2.50
41141,0.19,0.03,0.94,-13.61,38.57,4.21
41157,0.18,-0.01,0.93,-16.78,41.44,5.55
41173,0.11,-0.05,0.96,-3.42,44.74,8.06
41189,0.02,-0.03,1.03,11.66,43.82,5.07
41205,-0.01,-0.01,1.06,12.45,42.97,2.14
41221,0.02,-0.00,1.09,2.20,42.79,-2.99
41237,0.06,0.00,1.09,-5.37,42.11,-5.25
41253,0.06,0.02,1.10,-5.25,41.81,-5.43
41269,0.03,0.05,1.13,-7.63,40.59,-6.47
41285,-0.01,0.07,1.11,-11.78,37.78,-6.65
41301,-0.01,0.07,1.10,-12.27,36.07,-5.31
41317,0.02,0.03,1.07,-5.74,29.42,1.34
41333,0.03,-0.01,1.09,6.71,19.29,8.36
41349,0.02,-0.02,1.08,10.99,15.08,9.03
41365,-0.01,-0.00,1.06,10.93,11.41,4.94
41381,-0.04,0.01,1.03,6.77,15.08,-0.37
41397,-0.05,0.01,1.02,3.72,18.62,-2.20
41413,-0.06,0.01,1.00,4.58,26.92,-3.05
41429,-0.06,0.03,1.10,26.18,30.15,3.78
41445,-0.08,0.01,1.08,20.08,23.62,1.83
41461,-0.10,0.01,1.07,18.55,19.59,-1.77
41477,-0.13,0.03,1.06,15.87,17.09,-1.77
41493,-0.13,0.04,1.06,13.67,15.01,-2.08
41509,-0.10,0.04,1.06,14.95,12.94,-1.95
41525,-0.10,0.04,1.06,16.42,15.01,-0.67
41541,-0.09,0.04,1.06,14.53,16.30,-1.40
41557,-0.09,0.05,1.04,11.11,18.25,-4.58
41573,-0.10,0.07,1.05,9.52,21.36,-6.84
41589,-0.08,0.09,1.08,8.67,23.99,-7.08
41605,-0.07,0.09,1.09,6.77,29.60,-6.04
41621,-0.08,0.09,1.09,7.39,30.40,-3.23
41637,-0.09,0.10,1.06,9.09,29.24,-1.89
41653,-0.11,0.11,1.02,13.73,24.54,0.37
41669,-0.10,0.12,1.04,17.76,24.11,2.75
41685,-0.10,0.11,1.18,18.37,33.94,4.94
41701,-0.17,0.10,1.29,4.21,43.95,4.33
41717,-0.23,0.08,1.31,-3.66,41.69,1.59
41733,-0.27,0.12,1.38,6.10,23.56,-1.22
41749,-0.27,0.17,1.40,9.58,-0.55,-8.73
41765,-0.27,0.20,1.43,11.90,-6.10,-9.09
41781,-0.27,0.24,1.46,8.91,-11.90,-3.66
41797,-0.23,0.23,1.44,1.22,-19.96,1.77
41813,-0.23,0.22,1.43,0.24,-24.11,4.27
41829,-0.24,0.20,1.40,1.77,-31.19,9.09
41845,-0.24,0.18,1.38,5.25,-33.45,11.60
41861,-0.24,0.18,1.37,6.59,-34.61,11.41
41877,-0.21,0.15,1.33,2.38,-37.05,11.23
41893,-0.18,0.14,1.27,-2.44,-37.29,10.44
41909,-0.17,0.13,1.24,-5.37,-37.48,8.97
41925,-0.16,0.15,1.17,-10.50,-36.19,5.98
41941,-0.15,0.15,1.11,-18.43,-32.41,3.85
41957,-0.14,0.14,1.09,-20.63,-28.99,4.33
41973,-0.13,0.11,1.08,-20.75,-18.98,7.26
41989,-0.15,0.09,1.10,-18.37,-12.08,8.97
42005,-0.16,0.07,1.11,-18.74,-11.84,8.79
42021,-0.18,0.04,1.11,-14.28,-17.70,9.52
42037,-0.20,0.02,1.11,-1.53,-35.10,11.60
42053,-0.19,0.03,1.10,6.16,-44.19,12.45
42069,-0.16,0.06,1.08,11.47,-58.78,12.70
42085,-0.12,0.07,1.01,3.97,-67.63,13.79
42101,-0.10,0.06,0.97,1.04,-69.82,14.53
42117,-0.05,0.04,0.89,3.05,-70.80,16.60
42133,-0.03,0.03,0.84,12.15,-70.62,19.84
42149,-0.03,0.03,0.83,17.09,-70.80,21.55
42165,-0.02,0.05,0.82,18.68,-70.56,21.12
42181,0.03,0.06,0.78,7.69,-69.03,17.33
42197,0.04,0.06,0.75,0.24,-67.26,15.44
42213,0.08,0.04,0.69,-12.33,-63.11,12.76
42229,0.13,0.03,0.62,-17.64,-58.78,11.72
42245,0.15,0.03,0.58,-17.15,-56.34,11.72
42261,0.17,0.02,0.53,-12.45,-49.44,12.94
42277,0.18,0.02,0.50,-10.62,-41.50,13.92
42293,0.19,0.02,0.48,-13.00,-37.48,13.31
42309,0.23,-0.01,0.45,-25.76,-28.69,11.47
42325,0.23,-0.06,0.44,-36.74,-16.11,9.40
42341,0.23,-0.08,0.44,-37.48,-8.48,7.32
42357,0.20,-0.10,0.45,-28.14,6.29,1.22
42373,0.23,-0.09,0.48,-15.14,14.10,-4.88
42389,0.26,-0.08,0.50,-10.13,15.44,-6.53
42405,0.29,-0.07,0.54,-4.70,15.32,-4.94
42421,0.24,-0.09,0.62,-4.94,14.53,1.34
42437,0.22,-0.10,0.66,-7.26,15.26,3.05
42453,0.19,-0.11,0.71,-8.48,16.85,1.40
42469,0.18,-0.09,0.71,-1.16,14.89,-4.46
42485,0.19,-0.08,0.71,5.43,12.76,-6.65
42501,0.21,-0.04,0.72,17.76,9.95,-7.02
42517,0.17,-0.03,0.73,21.73,13.00,-2.44
42533,0.14,-0.04,0.75,21.24,16.91,0.67
42549,0.06,-0.04,0.82,19.59,24.35,4.64
42565,0.04,-0.01,0.87,16.48,26.25,-1.59
42581,0.07,-0.02,0.89,13.18,25.09,-6.77
42597,0.15,-0.02,0.90,9.52,25.27,-12.51
42613,0.16,-0.02,0.90,15.93,29.60,-7.39
42629,0.10,-0.02,0.92,20.39,31.19,-2.93
42645,0.02,-0.01,0.98,23.68,32.10,1.89
42661,0.01,-0.01,1.00,15.69,32.23,-1.10
42677,0.05,0.00,1.03,9.70,32.23,-4.76
42693,0.08,0.02,1.03,-0.31,33.69,-12.45
42709,0.09,0.03,1.02,14.22,37.54,-13.06
42725,0.03,0.06,1.02,4.39,39.37,-10.93
42741,0.01,0.07,1.04,10.31,40.65,-3.60
42757,0.04,0.07,1.05,8.97,39.43,-0.18
42773,0.06,0.05,1.05,8.18,37.72,3.23
42789,0.00,0.02,1.03,9.34,35.71,4.46
42805,-0.03,0.00,1.02,9.58,34.00,6.53
42821,-0.09,-0.03,1.04,9.09,33.94,8.30
42837,-0.08,-0.03,1.08,9.28,42.79,-1.83
42853,-0.07,0.00,1.11,10.19,48.52,-10.44
42869,-0.04,0.09,1.17,12.63,56.58,-28.02
42885,-0.05,0.18,1.13,-9.95,60.36,-35.52
42901,-0.05,0.25,1.26,17.76,61.22,-24.35
42917,-0.11,0.22,1.23,-4.70,37.23,-15.99
42933,-0.15,0.16,1.23,0.49,34.18,-3.91
42949,-0.16,0.14,1.27,7.39,30.82,1.89
42965,-0.13,0.15,1.32,16.24,17.64,4.15
42981,-0.11,0.15,1.33,12.82,7.81,4.21
42997,-0.12,0.15,1.32,8.00,4.39,4.39
43013,-0.14,0.15,1.31,6.65,0.92,4.27
43029,-0.15,0.16,1.32,6.10,0.92,2.14
43045,-0.14,0.17,1.34,4.76,2.01,0.98
43061,-0.12,0.19,1.40,-1.59,5.00,-0.18
43077,-0.14,0.20,1.45,0.61,4.70,2.14
43093,-0.16,0.19,1.47,2.93,-0.24,4.94
43109,-0.20,0.17,1.51,5.49,-12.51,10.99
43125,-0.21,0.14,1.53,1.59,-20.94,12.57
43141,-0.22,0.13,1.52,-1.83,-24.60,11.11
43157,-0.21,0.11,1.46,-8.06,-32.47,7.87
43173,-0.19,0.10,1.40,-7.81,-40.22,5.98
43189,-0.18,0.10,1.37,-7.20,-43.58,5.25
43205,-0.18,0.12,1.29,-7.51,-48.34,3.30
43221,-0.16,0.12,1.20,-13.18,-50.11,3.36
43237,-0.15,0.10,1.16,-16.36,-49.68,4.46
43253,-0.11,0.06,1.09,-19.78,-47.06,6.47
43269,-0.09,0.04,1.04,-16.78,-43.64,6.29
43285,-0.09,0.03,1.02,-15.32,-41.87,5.86
43301,-0.08,0.03,1.00,-8.18,-36.87,4.76
43317,-0.07,0.02,1.03,-3.05,-31.80,5.00
43333,-0.06,0.01,1.05,-2.50,-30.09,5.07
43349,-0.03,-0.01,1.05,-7.63,-31.13,3.23
43365,-0.01,-0.03,1.01,-10.56,-36.74,1.89
43381,0.00,-0.02,0.99,-9.16,-40.95,1.65
43397,0.02,0.00,0.93,-0.06,-49.32,0.49
43413,0.05,0.05,0.88,13.12,-55.24,0.00
43429,0.07,0.07,0.87,17.27,-56.15,1.59
43445,0.10,0.10,0.86,15.75,-51.45,7.20
43461,0.12,0.08,0.85,5.68,-42.05,11.35
43477,0.11,0.06,0.83,1.83,-38.09,13.06
43493,0.09,0.04,0.80,-0.24,-35.58,16.48
43509,0.10,0.04,0.77,0.79,-40.16,17.58
43525,0.12,0.05,0.74,0.67,-43.03,16.97
43541,0.14,0.06,0.68,-2.75,-47.12,15.44
43557,0.15,0.05,0.58,-8.73,-48.28,17.09
43573,0.17,0.04,0.53,-11.35,-48.03,19.23
43589,0.18,0.00,0.44,-14.65,-46.63,24.29
43605,0.20,-0.05,0.40,-15.32,-40.16,29.17
43621,0.20,-0.08,0.38,-16.30,-34.12,30.27
43637,0.21,-0.14,0.37,-21.24,-20.08,28.50
43653,0.21,-0.17,0.37,-25.45,-5.00,21.91
43669,0.21,-0.20,0.37,-25.63,2.26,16.54
43685,0.23,-0.19,0.40,-19.65,16.24,4.03
43701,0.23,-0.17,0.42,-7.93,31.37,-8.79
43717,0.18,-0.11,0.50,-2.38,39.00,-12.70
43733,0.17,-0.07,0.61,5.25,54.08,-17.15
43749,0.17,-0.06,0.66,7.02,57.07,-16.54
43765,0.16,-0.04,0.76,8.61,54.87,-14.47
43781,0.13,-0.02,0.83,7.69,47.42,-8.61
43797,0.10,-0.02,0.86,3.17,44.07,-5.74
43813,0.05,-0.04,0.88,-6.23,42.05,-2.87
43829,-0.01,-0.04,0.92,-6.77,42.79,-5.13
43845,0.03,-0.04,0.93,-7.02,41.50,-6.96
43861,0.10,-0.05,0.92,-5.80,37.11,-6.29
43877,0.07,-0.06,0.95,4.46,39.00,2.99
43893,0.03,-0.06,0.99,8.79,41.63,7.02
43909,-0.03,-0.07,1.04,7.93,45.72,8.85
43925,-0.03,-0.08,1.05,0.49,44.01,5.31
43941,-0.00,-0.08,1.05,-1.53,41.14,2.62
43957,0.01,-0.07,1.03,0.55,36.13,-0.85
43973,-0.01,-0.03,1.03,6.29,36.25,-0.55
43989,-0.03,-0.01,1.04,6.90,38.45,-0.49
44005,-0.07,0.00,1.07,-0.61,44.25,-0.43
44021,-0.08,-0.01,1.06,-7.14,46.57,0.06
44037,-0.07,-0.02,1.04,-5.19,44.80,0.43
44053,-0.06,0.02,1.08,7.87,38.39,2.20
44069,-0.10,-0.04,1.11,5.62,41.26,3.42
44085,-0.09,0.03,1.22,25.21,41.44,4.88
44101,-0.09,0.01,1.19,-0.98,38.57,-9.16
44117,-0.14,0.05,1.21,11.72,44.13,-10.56
44133,-0.15,0.07,1.24,15.01,41.32,-8.42
44149,-0.14,0.09,1.27,12.08,33.75,-2.08
44165,-0.15,0.05,1.29,10.07,31.25,7.32
44181,-0.16,0.03,1.29,13.79,28.81,10.38
44197,-0.17,0.05,1.33,23.93,21.79,9.70
44213,-0.15,0.07,1.35,21.79,14.83,7.08
44229,-0.15,0.06,1.34,15.99,12.02,7.26
44245,-0.19,0.03,1.33,9.64,9.03,7.26
44261,-0.21,0.03,1.40,15.50,7.32,6.59
44277,-0.21,0.04,1.42,14.71,6.90,3.97
44293,-0.22,0.07,1.49,15.38,5.19,1.10
44309,-0.25,0.10,1.53,14.95,0.06,0.00
44325,-0.25,0.10,1.54,13.06,-2.99,0.37
44341,-0.28,0.09,1.56,11.11,-9.77,3.78
44357,-0.29,0.05,1.54,10.01,-21.97,7.57
44373,-0.28,0.03,1.52,10.13,-28.93,9.16
44389,-0.27,0.03,1.45,9.58,-41.32,9.03
44405,-0.26,0.03,1.34,3.05,-49.99,4.88
44421,-0.25,0.03,1.28,0.37,-51.94,2.08
44437,-0.21,0.04,1.18,-4.52,-52.06,-1.83
44453,-0.17,0.05,1.10,-5.37,-48.89,-1.46
44469,-0.15,0.05,1.07,-6.53,-47.55,-0.18
44485,-0.13,0.05,1.01,-10.80,-43.76,2.01
44501,-0.11,0.04,0.97,-11.05,-39.25,2.44
44517,-0.10,0.03,0.96,-11.17,-37.29,1.46
44533,-0.09,0.02,0.94,-13.12,-36.38,-1.34
44549,-0.07,0.01,0.95,-12.88,-38.39,0.18
44565,-0.06,0.01,0.96,-11.54,-39.67,1.53
44581,-0.04,0.00,0.99,-7.45,-42.24,3.23
44597,-0.05,-0.01,0.99,-4.94,-48.28,6.04
44613,-0.05,-0.02,0.98,-5.37,-52.92,7.93
44629,-0.02,-0.04,0.92,-8.48,-62.87,8.91
44645,0.03,-0.06,0.84,-9.34,-69.52,6.47
44661,0.04,-0.06,0.80,-6.47,-70.25,5.74
44677,0.07,-0.04,0.76,-2.87,-68.30,4.70
44693,0.08,-0.04,0.70,-6.53,-62.99,4.03
44709,0.09,-0.03,0.68,-9.77,-59.33,4.03
44725,0.15,-0.03,0.64,-16.05,-49.44,2.20
44741,0.17,-0.03,0.62,-13.92,-39.98,-0.61
44757,0.16,-0.02,0.59,-10.99,-37.29,-0.79
44773,0.16,-0.01,0.56,-3.17,-34.00,2.01
44789,0.16,-0.01,0.56,-0.67,-32.10,5.98
44805,0.17,-0.03,0.54,-2.87,-30.70,7.45
44821,0.18,-0.05,0.52,-9.52,-24.90,8.24
44837,0.19,-0.07,0.50,-12.88,-21.24,6.71
44853,0.22,-0.08,0.46,-17.40,-13.24,5.43
44869,0.23,-0.08,0.44,-16.60,-2.75,2.62
44885,0.22,-0.08,0.45,-13.79,3.97,1.22
44901,0.21,-0.09,0.47,-8.79,18.01,-0.79
44917,0.21,-0.09,0.52,-4.76,28.99,-2.87
44933,0.21,-0.10,0.55,-2.75,33.02,-3.91
44949,0.18,-0.11,0.62,1.65,39.79,-5.25
44965,0.13,-0.09,0.69,8.24,44.37,-5.80
44981,0.10,-0.08,0.74,11.05,45.47,-6.04
44997,0.07,-0.05,0.81,10.50,44.62,-6.90
45013,0.12,-0.03,0.88,7.08,42.42,-6.65
45029,0.12,-0.04,0.90,4.94,40.34,-4.58
45045,0.08,-0.06,0.93,3.91,35.71,3.36
45061,0.02,-0.07,0.96,6.23,33.75,6.90
45077,-0.00,-0.07,0.96,8.06,33.63,6.23
45093,-0.02,-0.06,0.98,11.29,34.67,3.36
45109,0.03,-0.04,1.00,8.91,34.36,0.37
45125,0.03,-0.04,1.00,5.07,34.18,-0.67
45141,0.02,-0.06,0.98,-3.36,35.83,0.85
45157,-0.03,-0.07,0.97,-2.75,38.21,3.48
45173,-0.05,-0.06,0.98,0.49,38.88,3.11
45189,-0.02,-0.05,0.98,10.07,38.64,0.24
45205,0.01,-0.04,1.00,15.01,37.11,0.18
45221,0.01,-0.05,1.00,12.82,37.60,2.69
45237,-0.02,-0.11,1.00,7.08,42.60,9.64
45253,-0.08,-0.12,1.03,7.14,49.07,8.18
45269,-0.13,-0.10,1.06,7.51,51.27,2.75
45285,-0.15,-0.04,1.11,7.63,54.38,-11.17
45301,-0.18,-0.02,1.08,1.22,60.73,-13.67
45317,-0.17,0.03,1.21,37.84,62.93,-2.62
45333,-0.19,-0.00,1.23,36.32,44.37,2.87
45349,-0.22,0.02,1.33,42.79,37.11,5.13
45365,-0.23,0.03,1.35,30.88,30.52,3.36
45381,-0.22,0.04,1.34,15.14,21.00,-5.07
45397,-0.20,0.06,1.30,11.66,18.37,-10.38
45413,-0.19,0.07,1.28,15.38,17.33,-10.07
45429,-0.19,0.09,1.25,23.44,11.17,-7.63
45445,-0.21,0.13,1.26,26.00,4.46,-6.65
45461,-0.23,0.16,1.27,22.58,1.59,-8.12
45477,-0.24,0.19,1.26,9.52,-1.16,-9.40
45493,-0.21,0.19,1.29,13.24,-0.06,-4.94
45509,-0.22,0.20,1.31,18.92,-0.55,-2.75
45525,-0.25,0.22,1.40,21.61,-2.56,-1.10
45541,-0.25,0.23,1.45,9.34,-1.89,-1.22
45557,-0.26,0.22,1.47,4.58,-0.92,-0.98
45573,-0.28,0.21,1.50,0.85,-3.05,2.56
45589,-0.30,0.19,1.50,2.20,-13.24,5.49
45605,-0.32,0.17,1.50,7.39,-19.96,7.57
45621,-0.32,0.16,1.48,17.82,-32.35,12.39
45637,-0.28,0.15,1.43,19.17,-42.48,14.65
45653,-0.26,0.15,1.39,16.91,-46.63,14.10
45669,-0.24,0.15,1.31,15.01,-54.14,12.94
45685,-0.21,0.13,1.24,9.77,-58.59,13.67
45701,-0.20,0.13,1.20,5.68,-59.51,14.04
45717,-0.17,0.12,1.14,-5.37,-58.84,13.18
45733,-0.13,0.10,1.06,-16.54,-54.99,10.74
45749,-0.12,0.09,1.03,-18.68,-52.31,10.50
45765,-0.09,0.08,0.99,-18.92,-47.79,11.90
45781,-0.08,0.07,0.97,-19.59,-43.33,12.88
45797,-0.06,0.06,0.96,-18.31,-42.18,12.63
45813,-0.04,0.06,0.93,-18.49,-43.03,11.17
45829,-0.03,0.06,0.91,-18.07,-45.65,11.54
45845,0.00,0.07,0.85,-16.36,-47.79,12.57
45861,0.03,0.06,0.79,-7.93,-52.98,17.40
45877,0.03,0.05,0.77,4.33,-56.40,23.86
45893,0.03,0.06,0.73,7.75,-57.37,25.94
45909,0.05,0.05,0.66,6.65,-58.47,28.50
45925,0.07,0.03,0.62,3.23,-58.41,29.30
45941,0.12,0.01,0.55,-5.37,-57.50,29.66
45957,0.16,-0.02,0.48,-15.87,-54.02,26.06
45973,0.17,-0.03,0.45,-20.94,-51.15,23.80
45989,0.18,-0.04,0.41,-26.18,-44.37,17.88
46005,0.19,-0.05,0.39,-18.55,-31.62,13.55
46021,0.19,-0.05,0.41,-12.27,-23.56,12.57
46037,0.17,-0.06,0.49,-3.72,-5.55,12.27
46053,0.17,-0.07,0.54,-10.07,7.69,11.72
46069,0.17,-0.09,0.57,-15.63,11.90,10.19
46085,0.15,-0.12,0.60,-29.11,17.46,5.19
46101,0.13,-0.14,0.61,-37.96,22.16,-0.98
46117,0.13,-0.14,0.63,-36.07,24.90,-3.66
46133,0.14,-0.15,0.67,-26.55,29.72,-7.75
46149,0.14,-0.13,0.71,-11.84,30.33,-7.63
46165,0.15,-0.13,0.72,-4.64,27.65,-5.92
46181,0.13,-0.11,0.74,4.70,20.39,-1.40
46197,0.09,-0.09,0.76,2.32,19.04,-0.49
46213,0.08,-0.07,0.77,-2.38,20.94,-2.14
46229,0.12,-0.07,0.79,-11.72,27.59,-8.30
46245,0.17,-0.08,0.80,-12.15,33.20,-8.00
46261,0.15,-0.09,0.81,-7.45,35.03,-4.27
46277,0.09,-0.09,0.88,3.42,36.07,4.39
46293,-0.01,-0.07,0.94,5.31,36.50,6.04
46309,-0.04,-0.07,0.96,3.78,36.80,4.52
46325,-0.00,-0.05,0.99,4.70,37.41,-0.06
46341,0.04,-0.02,1.01,7.39,37.72,-3.85
46357,0.04,-0.02,1.01,6.77,38.27,-2.26
46373,-0.02,-0.04,1.01,5.07,38.94,6.77
46389,-0.11,-0.09,1.01,3.54,37.48,13.98
46405,-0.13,-0.12,1.02,3.30,37.29,14.89
46421,-0.13,-0.12,1.06,0.18,41.56,8.54
46437,-0.08,-0.09,1.06,-9.22,49.56,-7.51
46453,-0.07,-0.08,1.06,-13.06,53.65,-14.04
46469,-0.12,-0.05,1.07,-7.14,61.28,-15.14
46485,-0.17,-0.01,1.12,5.62,60.91,-7.51
46501,-0.18,-0.02,1.15,6.84,56.70,-2.50
46517,-0.18,-0.02,1.11,-6.47,43.03,2.44
46533,-0.15,-0.03,1.23,24.60,36.01,11.60
46549,-0.14,0.00,1.22,21.48,22.16,7.57
46565,-0.15,-0.01,1.15,13.31,15.14,-3.36
46581,-0.17,0.01,1.15,19.71,15.93,2.38
46597,-0.17,0.03,1.16,24.90,14.59,5.98
46613,-0.19,0.02,1.15,28.99,11.60,10.86
46629,-0.17,0.02,1.15,30.40,7.63,16.54
46645,-0.17,0.03,1.14,26.43,4.82,17.33
46661,-0.16,0.01,1.10,13.98,3.72,14.16
46677,-0.20,-0.01,1.08,12.82,8.61,12.70
46693,-0.21,0.00,1.11,22.16,11.84,13.24
46709,-0.24,0.01,1.15,26.00,17.70,10.62
46725,-0.26,0.02,1.23,34.00,24.72,12.02
46741,-0.26,0.02,1.27,34.24,24.35,13.31
46757,-0.25,0.03,1.38,28.14,19.17,11.84
46773,-0.29,0.04,1.40,4.33,8.85,2.81
46789,-0.28,0.02,1.37,-6.90,1.28,-1.95
46805,-0.24,0.03,1.29,-5.00,-14.59,-5.92
46821,-0.23,0.05,1.28,8.24,-22.34,-5.49
46837,-0.23,0.10,1.28,9.28,-21.61,-5.43
46853,-0.22,0.10,1.32,2.50,-12.02,-2.56
46869,-0.25,0.09,1.36,-1.40,-0.61,0.31
46885,-0.30,0.06,1.45,-5.07,0.31,0.24
46901,-0.34,0.04,1.50,-10.13,-4.33,-1.83
46917,-0.34,0.03,1.51,-15.93,-12.27,-5.74
46933,-0.33,0.01,1.48,-17.76,-16.85,-7.45
46949,-0.29,-0.00,1.40,-23.56,-25.94,-12.76
46965,-0.29,-0.00,1.35,-26.86,-30.27,-30.70
46981,-0.28,-0.01,1.23,-30.33,-36.13,-17.82
46997,-0.25,-0.01,1.13,-22.28,-36.13,-17.94
47013,-0.22,0.01,1.10,-17.27,-33.69,-17.21
47029,-0.16,0.04,1.06,-6.10,-26.61,-14.65
47045,-0.12,0.06,1.02,-6.10,-20.69,-10.19
47061,-0.11,0.06,1.00,-8.18,-18.31,-7.63
47077,-0.10,0.03,0.94,-14.59,-13.98,-1.46
47093,-0.09,-0.00,0.90,-10.86,-11.23,4.88
47109,-0.11,-0.02,0.90,-5.31,-10.80,6.41
47125,-0.12,-0.02,0.89,3.30,-13.37,6.71
47141,-0.10,-0.01,0.90,6.84,-18.98,5.07
47157,-0.10,-0.01,0.90,7.39,-24.11,4.64
47173,-0.09,0.00,0.89,10.19,-34.42,6.10
47189,-0.08,0.01,0.83,8.24,-44.98,8.91
47205,-0.08,0.01,0.79,5.00,-50.72,10.56
47221,-0.09,-0.00,0.67,-2.26,-60.73,14.22
47237,-0.08,-0.02,0.55,-2.75,-66.04,17.21
47253,-0.07,-0.02,0.51,0.49,-65.37,18.86
47269,-0.03,-0.03,0.48,8.48,-56.34,21.67
47285,0.01,-0.04,0.50,8.85,-41.14,20.87
47301,0.04,-0.04,0.50,5.07,-33.39,19.35
47317,0.06,-0.08,0.52,-1.10,-18.31,17.27
47333,0.04,-0.11,0.56,-1.22,-6.84,16.42
47349,0.05,-0.12,0.58,-1.16,-3.23,15.56
47365,0.03,-0.13,0.62,-0.31,1.59,12.33
47381,-0.01,-0.14,0.67,-2.87,4.94,7.81
47397,-0.01,-0.13,0.67,-5.00,6.35,4.27
47413,0.01,-0.13,0.68,-8.42,5.86,-3.17
47429,0.05,-0.14,0.71,-9.28,5.43,-5.74
47445,0.06,-0.14,0.71,-8.79,5.31,-6.23
47461,0.07,-0.16,0.74,-5.37,3.54,-6.16
47477,0.02,-0.15,0.82,4.70,5.86,-2.93
47493,0.01,-0.13,0.84,7.87,7.02,-2.32
47509,-0.01,-0.09,0.84,7.14,1.95,-6.41
47525,0.07,-0.06,0.81,6.23,-2.44,-11.11
47541,0.09,-0.06,0.81,5.68,-0.49,-11.47
47557,0.05,-0.08,0.82,7.02,8.79,-6.53
47573,-0.02,-0.10,0.87,15.32,17.58,-1.34
47589,-0.05,-0.11,0.90,20.57,19.53,-0.79
47605,-0.05,-0.09,0.94,26.00,16.66,-2.81
47621,-0.00,-0.08,0.94,25.27,12.82,-8.36
47637,0.01,-0.08,0.94,23.74,13.12,-9.89
47653,-0.02,-0.08,0.96,21.67,19.10,-9.16
47669,-0.09,-0.04,1.00,23.86,23.19,-8.97
47685,-0.12,-0.01,1.03,24.29,23.07,-11.17
47701,-0.09,0.05,1.05,19.17,20.69,-17.21
47717,-0.04,0.09,1.03,9.89,18.37,-19.96
47733,-0.03,0.10,1.02,7.08,18.62,-18.07
47749,-0.04,0.09,1.01,5.98,20.14,-9.83
47765,-0.09,0.07,1.03,8.73,21.00,-1.34
47781,-0.09,0.06,1.05,8.67,20.63,0.85
47797,-0.07,0.06,1.07,5.00,19.96,-0.49
47813,-0.05,0.03,1.08,-1.10,19.78,-2.44
47829,-0.06,0.01,1.07,-2.26,20.02,-1.40
47845,-0.10,-0.01,1.08,0.85,18.49,1.95
47861,-0.11,-0.02,1.12,8.73,16.30,1.95
47877,-0.11,0.01,1.12,13.18,15.87,-1.53
47893,-0.12,0.04,1.15,17.70,15.38,-12.02
47909,-0.08,0.21,1.12,0.00,18.25,-19.71
47925,-0.15,0.15,1.15,16.36,22.95,-12.39
47941,-0.15,0.16,1.15,8.61,10.50,-6.77
47957,-0.19,0.13,1.15,12.76,6.90,-1.53
47973,-0.19,0.12,1.18,15.63,4.46,3.05
47989,-0.15,0.14,1.19,17.40,-5.74,6.84
48005,-0.16,0.16,1.18,1.16,-11.54,7.02
48021,-0.15,0.16,1.14,9.22,-12.45,7.39
48037,-0.13,0.13,1.13,5.19,-10.68,9.52
48053,-0.14,0.13,1.15,5.37,-8.42,9.89
48069,-0.14,0.13,1.19,4.52,-3.42,8.48
48085,-0.15,0.13,1.22,-3.91,-2.69,6.77
48101,-0.15,0.12,1.23,-5.92,-3.05,6.35
48117,-0.15,0.11,1.30,1.10,-5.68,6.35
48133,-0.14,0.12,1.38,12.02,-8.85,6.23
48149,-0.14,0.13,1.41,13.49,-10.62,6.23
48165,-0.15,0.14,1.44,7.75,-14.04,5.43
48181,-0.16,0.15,1.46,3.23,-17.15,5.49
48197,-0.16,0.15,1.46,3.05,-19.59,4.94
48213,-0.13,0.16,1.45,5.43,-27.22,3.91
48229,-0.10,0.17,1.39,5.49,-36.50,4.15
48245,-0.08,0.17,1.34,4.94,-41.26,5.13
48261,-0.07,0.15,1.24,7.75,-49.32,9.34
48277,-0.06,0.14,1.17,19.90,-53.28,13.85
48293,-0.04,0.15,1.13,26.00,-54.32,14.83
48309,-0.03,0.18,1.09,29.30,-53.71,14.22
48325,0.02,0.18,1.06,19.84,-47.49,14.59
48341,0.03,0.17,1.06,13.31,-43.15,15.20
48357,0.02,0.13,1.07,5.13,-36.44,16.91
48373,-0.00,0.11,1.07,5.98,-35.58,17.15
48389,-0.01,0.11,1.07,8.12,-37.78,16.78
48405,-0.00,0.12,1.05,11.29,-46.08,16.11
48421,0.01,0.12,1.01,13.06,-58.47,16.36
48437,0.03,0.12,0.97,13.55,-63.17,17.58
48453,0.04,0.10,0.90,13.67,-67.75,20.81
48469,0.06,0.10,0.85,15.01,-66.28,21.67
48485,0.07,0.10,0.83,16.60,-64.33,21.18
48501,0.08,0.11,0.80,21.24,-61.04,20.94
48517,0.09,0.11,0.76,20.51,-58.41,21.42
48533,0.10,0.11,0.74,16.97,-56.82,21.91
48549,0.13,0.09,0.69,8.30,-53.59,21.67
48565,0.16,0.07,0.63,2.99,-49.56,20.08
48581,0.16,0.07,0.61,1.34,-46.69,19.29
48597,0.17,0.06,0.56,-3.91,-38.82,17.03
48613,0.19,0.05,0.52,-13.31,-29.05,14.71
48629,0.20,0.03,0.50,-18.98,-23.93,13.85
48645,0.22,-0.01,0.49,-26.31,-14.65,12.88
48661,0.24,-0.04,0.49,-25.33,-3.97,10.56
48677,0.24,-0.04,0.51,-22.83,1.34,8.61
48693,0.23,-0.03,0.53,-17.76,10.01,3.36
48709,0.23,-0.01,0.57,-16.42,14.40,0.06
48725,0.22,-0.01,0.59,-17.70,15.93,-0.61
48741,0.25,-0.03,0.62,-20.08,17.88,-0.79
48757,0.24,-0.05,0.65,-15.20,19.23,0.24
48773,0.23,-0.06,0.68,-9.83,20.02,0.24
48789,0.21,-0.03,0.75,-1.40,22.28,-1.71
48805,0.18,-0.00,0.79,-3.54,22.46,-5.80
48821,0.19,0.00,0.78,-5.86,21.61,-7.81
48837,0.23,0.02,0.78,-4.94,19.47,-9.70
48853,0.23,0.03,0.81,2.26,19.10,-7.14
48869,0.19,0.04,0.84,5.68,19.59,-5.07
48885,0.13,0.05,0.89,6.23,22.03,-2.50
48901,0.12,0.05,0.93,-0.49,25.51,-3.72
48917,0.14,0.05,0.94,-3.48,26.61,-5.13
48933,0.18,0.04,0.94,-5.31,27.28,-7.26
48949,0.18,0.05,0.94,-1.65,27.59,-6.71
48965,0.14,0.05,0.98,-1.40,28.44,-5.43
48981,0.09,0.05,0.99,-5.31,30.94,-5.37
48997,0.08,0.05,1.00,-4.76,33.20,-9.09
49013,0.10,0.08,1.01,-2.81,32.90,-11.11
49029,0.14,0.11,1.01,2.69,30.46,-11.47
49045,0.13,0.11,1.01,5.13,28.50,-5.68
49061,0.11,0.10,1.00,6.10,28.20,-1.89
49077,0.07,0.08,1.01,8.06,27.71,2.50
49093,0.05,0.07,1.02,10.31,27.16,2.14
49109,0.05,0.08,1.04,13.12,26.98,-1.89
49125,0.08,0.10,1.06,7.75,29.05,-5.98
49141,0.09,0.11,1.05,3.11,30.94,-7.02
49157,0.06,0.11,1.04,0.24,35.22,-5.43
49173,-0.00,0.13,1.08,14.22,36.74,-2.08
49189,-0.01,0.12,1.12,20.87,35.10,-1.89
49205,-0.00,0.13,1.11,9.03,36.25,-1.59
49221,0.00,0.15,1.23,24.35,33.14,3.42
49237,0.02,0.11,1.21,6.53,29.48,-0.98
49253,-0.02,0.12,1.23,10.01,32.90,-2.87
49269,-0.02,0.17,1.26,7.57,28.20,-5.80
49285,-0.02,0.18,1.25,5.31,25.27,-7.32
49301,-0.03,0.18,1.23,5.74,22.34,-4.03
49317,-0.05,0.16,1.20,5.86,19.47,1.83
49333,-0.05,0.14,1.19,4.94,17.03,3.36
49349,-0.05,0.11,1.15,4.27,11.05,4.03
49365,-0.04,0.11,1.11,3.60,6.16,1.89
49381,-0.03,0.12,1.09,0.73,4.03,-0.06
49397,0.03,0.20,1.22,-13.73,3.30,-2.38
49413,-0.03,0.19,1.24,-54.99,32.17,-0.37
49429,-0.06,0.13,1.15,-49.19,42.54,0.06
49445,-0.08,0.07,1.17,-14.95,24.54,-2.87
49461,-0.07,0.11,1.23,16.30,3.60,-1.77
49477,-0.07,0.13,1.24,21.61,-3.36,-1.16
49493,-0.08,0.15,1.29,24.11,-5.37,-0.55
49509,-0.07,0.18,1.39,22.89,5.25,1.34
49525,-0.08,0.19,1.45,19.35,10.62,1.22
49541,-0.13,0.20,1.51,7.08,13.06,1.71
49557,-0.17,0.19,1.51,-6.23,4.76,2.69
49573,-0.17,0.18,1.50,-10.31,-1.89,2.99
49589,-0.16,0.16,1.45,-10.07,-18.49,4.21
49605,-0.16,0.14,1.40,-4.88,-33.87,5.62
49621,-0.16,0.14,1.37,-2.87,-41.32,6.29
49637,-0.13,0.13,1.28,-1.40,-54.87,7.39
49653,-0.09,0.12,1.18,-1.83,-62.68,7.39
49669,-0.07,0.12,1.13,-3.11,-63.29,7.69
49685,-0.04,0.11,1.03,-8.97,-56.52,7.45
49701,-0.01,0.10,0.96,-12.33,-42.54,8.00
49717,-0.01,0.10,0.94,-12.82,-33.69,7.93
49733,-0.01,0.08,0.93,-15.14,-14.95,4.39
49749,-0.01,0.06,0.90,-18.19,-0.24,0.31
49765,-0.01,0.06,0.91,-16.30,0.24,-0.06
49781,-0.01,0.06,0.93,-3.17,-6.04,3.36
49797,-0.02,0.07,0.94,9.89,-19.65,9.64
49813,-0.02,0.07,0.95,15.56,-26.25,12.94
49829,-0.01,0.07,0.92,18.62,-35.83,17.64
49845,-0.02,0.06,0.86,15.38,-40.83,18.86
49861,-0.02,0.05,0.81,13.12,-42.60,19.04
49877,-0.01,0.04,0.73,10.56,-48.65,19.17
49893,-0.01,0.03,0.67,11.47,-55.66,20.14
49909,-0.00,0.02,0.65,8.79,-57.37,20.26
49925,0.04,-0.00,0.58,0.85,-55.30,19.23
49941,0.08,-0.02,0.52,-0.43,-47.30,16.36
49957,0.10,-0.03,0.51,2.87,-42.30,14.71
49973,0.13,-0.01,0.51,11.84,-32.35,10.44
49989,0.14,0.01,0.51,10.07,-24.54,5.25
50005,0.15,0.04,0.52,3.91,-20.39,3.23