time,accel_x,accel_y,accel_z,gyro_x,gyro_y,gyro_z
190022,0.01,-0.09,0.94,12.21,20.87,3.11
190037,0.02,-0.05,0.97,12.02,21.61,-6.53
190053,0.03,-0.03,0.98,7.39,23.99,-11.66
190069,0.00,-0.00,1.01,-8.24,28.99,-21.18
190085,-0.06,-0.02,1.00,-20.26,33.26,-24.35
190101,-0.07,-0.03,0.99,-18.55,34.55,-22.52
190117,-0.06,-0.02,1.01,0.37,33.81,-16.85
190133,-0.04,0.02,1.05,14.89,28.63,-12.39
190149,-0.05,0.04,1.05,17.64,25.82,-10.56
190165,-0.04,0.04,1.09,17.94,22.71,-6.23
190181,-0.05,0.04,1.12,11.47,20.94,-3.97
190197,-0.06,0.03,1.10,6.04,18.31,-5.25
190213,-0.05,0.03,1.07,-1.40,12.82,-9.95
190229,-0.04,0.02,1.05,-1.53,13.85,-12.08
190245,-0.03,0.03,1.06,0.67,16.36,-12.08
190261,-0.02,0.05,1.08,2.26,22.58,-10.56
190277,-0.07,0.04,1.04,-8.61,30.40,-10.56
190293,-0.05,0.04,1.16,-2.99,36.13,-8.97
190309,-0.12,0.06,1.22,6.96,29.48,-8.91
190325,-0.10,0.07,1.25,1.34,24.72,-15.44
190341,-0.10,0.08,1.26,-0.24,21.42,-17.40
190357,-0.10,0.09,1.25,6.29,13.73,-15.20
190373,-0.08,0.12,1.27,16.78,11.60,-7.14
190389,-0.08,0.13,1.29,21.30,11.35,-2.75
190405,-0.09,0.14,1.33,21.97,9.52,3.36
190421,-0.08,0.14,1.32,13.55,6.47,2.14
190437,-0.08,0.14,1.32,10.01,5.25,0.43
190453,-0.08,0.13,1.34,6.41,5.68,-0.18
190469,-0.10,0.12,1.38,7.08,7.26,3.78
190485,-0.12,0.12,1.41,9.22,6.16,4.15
190501,-0.13,0.15,1.45,12.08,-1.34,2.38
190517,-0.15,0.18,1.43,5.62,-12.15,1.22
190533,-0.16,0.17,1.40,1.65,-16.91,1.89
190549,-0.14,0.16,1.35,1.53,-22.64,5.19
190565,-0.12,0.14,1.33,8.85,-26.00,10.50
190581,-0.13,0.13,1.33,11.41,-28.63,13.61
190597,-0.15,0.10,1.28,9.52,-33.63,17.76
190613,-0.13,0.09,1.23,6.35,-38.82,15.75
190629,-0.11,0.09,1.20,5.25,-40.89,12.94
190645,-0.08,0.10,1.11,2.93,-42.24,9.34
190661,-0.05,0.10,1.05,2.69,-39.67,9.58
190677,-0.04,0.11,1.03,3.48,-36.99,11.47
190693,-0.03,0.09,1.02,4.33,-31.56,16.54
190709,0.01,0.09,1.02,1.34,-28.50,15.93
190725,0.01,0.09,1.01,-1.28,-27.16,13.92
190741,-0.00,0.09,1.00,-7.08,-22.71,11.84
190757,-0.03,0.09,1.00,-5.49,-15.99,14.04
190773,-0.04,0.08,0.99,-3.97,-12.27,15.93
190789,-0.03,0.09,0.97,-2.50,-8.30,18.80
190805,-0.02,0.06,0.98,-2.99,-8.00,21.97
190821,-0.04,0.04,0.99,-3.54,-8.79,23.56
190837,-0.06,0.00,1.00,-4.64,-13.37,22.83
190853,-0.06,-0.01,0.98,-4.52,-18.31,16.85
190869,-0.05,-0.01,0.97,-3.85,-20.20,14.53
190885,-0.04,0.01,0.93,-5.68,-23.13,11.23
190901,-0.00,0.01,0.87,-7.69,-26.67,12.21
190917,-0.01,0.01,0.83,-8.42,-28.50,12.51
190933,0.00,-0.01,0.77,-8.30,-30.64,12.88
190949,0.01,-0.02,0.73,-5.49,-28.93,11.90
190965,0.02,-0.04,0.69,-2.08,-26.37,11.41
190981,0.06,-0.04,0.67,4.70,-18.74,11.72
190997,0.06,-0.04,0.68,7.87,-11.78,11.84
191013,0.05,-0.03,0.70,6.16,-9.52,10.25
191029,0.05,-0.02,0.69,-0.24,-7.81,3.85
191045,0.05,-0.03,0.68,-2.14,-7.81,-0.18
191061,0.03,-0.03,0.66,0.12,-8.00,0.12
191077,0.04,-0.03,0.65,7.93,-9.09,2.26
191093,0.04,-0.03,0.65,11.47,-9.58,2.32
191109,0.06,-0.01,0.65,11.60,-9.28,1.59
191125,0.08,-0.02,0.62,5.68,-7.02,2.01
191141,0.07,-0.03,0.62,3.91,-4.46,3.17
191157,0.08,-0.07,0.64,3.17,2.32,5.74
191173,0.09,-0.09,0.68,6.16,8.97,4.46
191189,0.09,-0.08,0.72,7.75,11.78,2.01
191205,0.09,-0.06,0.77,5.80,17.03,-3.36
191221,0.05,-0.03,0.84,-1.10,20.14,-8.48
191237,0.03,-0.02,0.86,-6.41,20.87,-11.11
191253,0.01,-0.00,0.89,-12.88,21.24,-14.89
191269,0.00,0.02,0.90,-9.77,19.65,-16.30
191285,-0.01,0.04,0.90,-7.26,18.25,-15.75
191301,-0.02,0.07,0.91,-4.76,15.32,-13.85
191317,-0.02,0.06,0.92,-9.89,13.79,-11.29
191333,-0.02,0.04,0.93,-13.61,13.98,-9.70
191349,0.00,-0.00,0.95,-16.54,14.77,-6.47
191365,0.01,-0.04,0.96,-14.10,11.05,-6.84
191381,0.02,-0.04,0.95,-11.96,8.00,-8.12
191397,0.02,-0.04,0.93,-7.81,3.91,-11.60
191413,0.04,-0.01,0.93,-3.72,4.82,-14.10
191429,0.05,-0.00,0.93,-2.26,7.75,-16.54
191445,0.06,0.02,0.99,2.81,14.34,-16.91
191461,0.04,0.03,1.02,6.41,16.17,-13.00
191477,0.02,0.04,1.04,8.12,15.01,-11.29
191493,-0.01,0.06,1.04,6.65,9.95,-11.78
191509,-0.01,0.09,1.03,5.07,5.31,-15.20
191525,-0.01,0.11,1.03,3.42,5.00,-16.17
191541,-0.01,0.11,1.04,0.73,9.40,-13.31
191557,-0.04,0.08,1.10,3.23,19.96,-4.46
191573,-0.05,0.06,1.14,5.43,25.27,0.85
191589,-0.08,0.03,1.19,9.03,27.10,5.98
191605,-0.10,0.04,1.23,8.30,21.55,1.16
191621,-0.10,0.03,1.25,5.49,17.88,-3.11
191637,-0.07,0.06,1.18,-5.25,15.56,-8.67
191653,-0.09,0.05,1.16,7.39,10.74,-2.56
191669,-0.07,0.04,1.14,12.63,11.11,0.49
191685,-0.08,0.07,1.14,22.89,11.35,3.17
191701,-0.06,0.10,1.12,24.48,9.64,5.80
191717,-0.04,0.11,1.11,20.87,9.77,6.65
191733,-0.03,0.10,1.10,11.41,11.78,8.18
191749,-0.03,0.07,1.11,3.30,17.27,9.52
191765,-0.05,0.06,1.11,0.98,20.32,10.44
191781,-0.06,0.04,1.16,2.08,23.38,9.34
191797,-0.05,0.05,1.20,2.81,23.86,5.13
191813,-0.04,0.05,1.23,3.11,23.86,3.42
191829,-0.06,0.06,1.31,4.94,23.68,2.81
191845,-0.10,0.07,1.39,3.85,21.73,2.99
191861,-0.11,0.07,1.43,4.27,18.86,2.20
191877,-0.13,0.10,1.47,4.94,10.07,-1.83
191893,-0.15,0.14,1.45,5.49,-0.37,-7.14
191909,-0.15,0.15,1.43,5.92,-4.94,-7.75
191925,-0.15,0.17,1.38,10.13,-13.43,-2.93
191941,-0.14,0.19,1.31,14.95,-21.79,4.88
191957,-0.13,0.19,1.27,16.30,-25.51,7.81
191973,-0.12,0.19,1.18,17.27,-30.15,12.88
191989,-0.11,0.18,1.15,13.67,-28.69,17.09
192005,-0.10,0.15,1.11,9.95,-26.37,17.64
192021,-0.10,0.11,1.08,3.48,-20.75,19.10
192037,-0.11,0.10,1.06,0.92,-16.42,19.17
192053,-0.14,0.06,1.05,2.50,-16.05,19.23
192069,-0.13,0.06,1.03,8.12,-19.10,18.37
192085,-0.11,0.06,1.02,12.82,-23.32,16.97
192101,-0.12,0.08,1.00,13.55,-24.66,16.91
192117,-0.14,0.09,0.95,9.28,-24.78,16.42
192133,-0.14,0.09,0.93,6.29,-23.86,16.17
192149,-0.11,0.06,0.90,2.14,-19.23,15.99
192165,-0.08,0.02,0.92,6.41,-13.43,17.94
192181,-0.08,0.02,0.94,10.56,-12.21,18.62
192197,-0.12,0.03,1.00,16.66,-14.34,16.36
192213,-0.13,0.07,1.02,11.54,-20.75,9.22
192229,-0.09,0.09,1.01,6.29,-24.23,5.25
192245,-0.05,0.08,0.97,-0.85,-29.48,2.62
192261,-0.02,0.05,0.92,1.77,-30.82,6.96
192277,-0.04,0.04,0.92,6.96,-30.33,9.83
192293,-0.06,0.04,0.92,13.24,-28.63,11.66
192309,-0.04,0.07,0.92,10.38,-28.63,5.98
192325,-0.03,0.09,0.90,5.68,-28.75,2.32
192341,-0.00,0.11,0.85,-4.52,-27.89,-2.44
192357,0.01,0.08,0.79,-8.91,-26.00,-0.79
192373,0.01,0.07,0.77,-6.96,-25.33,1.10
192389,-0.01,0.06,0.77,1.65,-25.88,4.03
192405,0.01,0.07,0.76,5.19,-28.20,1.83
192421,0.04,0.09,0.74,4.03,-29.48,-0.92
192437,0.08,0.11,0.66,-1.10,-29.85,-4.82
192453,0.10,0.10,0.59,-4.33,-26.49,-2.69
192469,0.11,0.10,0.57,-3.85,-23.68,-0.24
192485,0.11,0.08,0.56,-3.60,-16.72,4.03
192501,0.16,0.05,0.58,-5.25,-8.67,5.49
192517,0.16,0.04,0.60,-6.10,-4.39,5.62
192533,0.15,0.02,0.64,-7.14,3.72,5.98
192549,0.11,0.02,0.67,-9.16,7.08,5.55
192565,0.11,0.03,0.68,-9.09,6.84,3.72
192581,0.13,0.04,0.70,-7.51,7.75,-1.28
192597,0.15,0.05,0.72,-4.88,12.70,-2.26
192613,0.15,0.06,0.74,-3.05,16.42,-1.40
192629,0.11,0.07,0.80,-3.54,24.84,2.81
192645,0.05,0.05,0.85,-11.72,30.82,5.68
192661,0.01,0.04,0.87,-15.08,32.17,5.43
192677,-0.03,0.03,0.92,-21.06,32.04,0.18
192693,-0.02,0.04,0.96,-24.23,29.60,-6.41
192709,-0.01,0.03,0.95,-23.56,28.69,-7.45
192725,-0.01,0.02,0.95,-15.99,26.12,-0.92
192741,-0.06,-0.00,0.98,-5.00,21.85,7.69
192757,-0.06,-0.00,1.00,-2.26,19.04,9.40
192773,-0.05,0.01,1.01,-5.19,13.61,4.94
192789,-0.01,0.00,0.98,-14.16,9.09,-4.27
192805,0.01,-0.00,0.95,-15.93,9.03,-6.23
192821,0.00,-0.02,0.92,-13.61,10.80,-3.91
192837,-0.04,-0.01,0.91,-4.03,13.06,-1.10
192853,-0.04,-0.00,0.91,0.79,12.76,-1.77
192869,-0.03,0.05,0.96,4.88,13.67,-3.91
192885,-0.00,0.05,1.01,-7.51,18.49,-2.50
192901,-0.00,0.02,1.01,-16.30,22.09,0.67
192917,-0.04,-0.05,1.02,-21.48,28.08,6.04
192933,-0.08,-0.07,1.07,-6.53,31.19,4.33
192949,-0.12,-0.06,1.11,3.30,31.62,1.10
192965,-0.13,0.01,1.22,11.54,33.51,-7.87
192981,-0.14,0.04,1.27,0.00,35.16,-13.85
192997,-0.12,0.09,1.25,-6.53,34.85,-13.92
193013,-0.11,0.04,1.28,-7.26,33.75,-8.48
193029,-0.14,0.05,1.23,2.99,20.69,-4.64
193045,-0.13,0.05,1.20,9.03,16.11,-5.07
193061,-0.10,0.09,1.17,21.61,9.77,-4.27
193077,-0.09,0.11,1.16,28.75,9.03,3.17
193093,-0.07,0.10,1.13,30.15,10.19,8.12
193109,-0.10,0.11,1.19,26.61,12.76,14.40
193125,-0.11,0.10,1.24,6.29,16.30,9.52
193141,-0.14,0.06,1.28,-3.91,17.15,5.13
193157,-0.14,0.05,1.29,-10.13,18.74,-3.11
193173,-0.14,0.06,1.32,-7.08,19.65,-4.88
193189,-0.17,0.09,1.40,-1.71,18.74,-3.54
193205,-0.19,0.11,1.46,0.12,11.84,-1.34
193221,-0.21,0.11,1.48,-0.24,6.16,-0.85
193237,-0.23,0.13,1.48,-2.75,-5.86,1.28
193253,-0.23,0.10,1.44,-5.07,-17.03,3.54
193269,-0.22,0.09,1.41,-2.93,-22.03,5.37
193285,-0.21,0.07,1.34,4.64,-31.01,8.48
193301,-0.22,0.07,1.27,9.58,-37.54,10.93
193317,-0.21,0.07,1.23,9.40,-39.12,11.11
193333,-0.19,0.06,1.16,4.70,-38.57,9.77
193349,-0.16,0.07,1.08,-0.67,-34.30,8.30
193365,-0.15,0.07,1.03,-3.05,-30.64,7.69
193381,-0.13,0.08,0.95,-8.48,-20.20,8.42
193397,-0.11,0.05,0.88,-11.05,-7.26,11.54
193413,-0.09,0.04,0.87,-7.87,-2.81,14.28
193429,-0.08,0.03,0.87,0.37,2.32,17.70
193445,-0.07,0.01,0.87,6.84,4.88,20.45
193461,-0.09,0.01,0.88,10.74,7.63,21.12
193477,-0.11,0.03,0.94,16.54,16.36,21.97
193493,-0.12,0.07,1.02,10.38,22.95,21.06
193509,-0.13,0.07,1.05,2.93,22.89,19.59
193525,-0.14,0.03,1.11,-14.77,15.20,18.01
193541,-0.13,-0.03,1.11,-21.18,0.79,18.31
193557,-0.14,-0.06,1.09,-18.43,-5.19,18.92
193573,-0.18,-0.08,1.06,-4.27,-16.91,18.98
193589,-0.16,-0.05,1.03,8.36,-28.02,14.53
193605,-0.13,-0.02,1.02,12.70,-32.59,12.82
193621,-0.15,-0.01,0.94,11.72,-40.41,12.63
193637,-0.15,-0.02,0.85,9.03,-43.64,14.59
193653,-0.13,-0.03,0.80,9.95,-42.54,14.77
193669,-0.11,-0.01,0.77,14.47,-37.05,13.55
193685,-0.07,0.01,0.76,11.05,-30.03,10.38
193701,-0.06,0.01,0.75,6.53,-26.37,8.67
193717,-0.08,-0.00,0.71,-2.99,-20.32,5.62
193733,-0.11,-0.03,0.69,-6.23,-20.81,3.48
193749,-0.10,-0.04,0.68,-7.20,-22.16,1.28
193765,-0.04,-0.02,0.64,-7.20,-23.99,-6.04
193781,0.02,-0.01,0.60,-6.10,-21.06,-9.77
193797,0.02,-0.01,0.59,-3.78,-17.40,-7.45
193813,0.00,-0.01,0.58,3.97,-10.56,1.04
193829,-0.02,-0.01,0.61,9.22,-9.70,5.43
193845,-0.00,-0.00,0.63,7.57,-10.68,4.21
193861,0.01,-0.01,0.66,0.67,-10.13,-2.81
193877,0.03,-0.02,0.71,-2.50,-2.56,-4.21
193893,0.03,-0.02,0.74,-2.14,-0.06,-2.75
193909,0.03,-0.01,0.75,2.50,-5.43,-0.31
193925,-0.00,0.02,0.75,8.85,-14.83,-0.24
193941,0.01,0.04,0.76,9.77,-15.81,0.18
193957,-0.02,0.03,0.77,6.96,-8.73,1.59
193973,0.01,0.03,0.82,6.16,-0.06,2.50
193989,0.02,0.03,0.85,6.41,2.62,3.42
194005,0.00,0.03,0.88,1.16,3.17,6.71
194021,-0.01,0.00,0.86,-7.69,2.01,4.33
194037,-0.01,0.00,0.85,-8.97,3.66,0.12
194053,0.02,0.02,0.86,-4.09,9.89,-8.67
194069,0.04,0.05,0.93,-0.98,16.60,-9.64
194085,0.04,0.05,0.95,-3.66,18.43,-6.41
194101,-0.00,0.01,0.96,-9.89,18.98,1.77
194117,-0.03,-0.01,0.96,-7.45,20.63,2.81
194133,-0.05,-0.02,0.98,-3.11,22.89,0.12
194149,-0.03,0.01,1.00,3.30,26.98,-7.63
194165,0.00,0.03,1.02,0.67,29.05,-9.83
194181,-0.01,0.02,1.10,-1.95,30.09,-7.20
194197,-0.08,-0.04,1.11,-13.37,30.33,-1.28
194213,-0.11,-0.07,1.11,-8.24,25.76,-1.83
194229,-0.16,-0.06,1.12,0.31,23.32,-5.49
194245,-0.13,0.02,1.13,15.75,19.53,-13.43
194261,-0.12,0.06,1.13,16.36,18.62,-16.78
194277,-0.10,0.11,1.11,12.02,17.64,-17.15
194293,-0.11,0.10,1.13,7.20,16.24,-10.19
194309,-0.15,0.05,1.16,5.13,15.01,-6.10
194325,-0.17,0.02,1.13,-3.05,13.00,-4.70
194341,-0.17,0.06,1.18,17.33,1.16,-4.88
194357,-0.15,0.06,1.14,19.04,-3.85,-8.42
194373,-0.11,0.10,1.10,20.57,-7.26,-10.19
194389,-0.09,0.12,1.10,24.96,-7.81,-4.21
194405,-0.13,0.11,1.10,23.62,-6.90,-1.34
194421,-0.12,0.11,1.16,13.73,-1.22,4.27
194437,-0.13,0.08,1.17,-2.20,0.61,1.65
194453,-0.12,0.05,1.16,-6.47,-1.77,-1.04
194469,-0.08,0.04,1.14,-3.23,-6.90,-4.70
194485,-0.06,0.05,1.14,7.32,-9.40,-3.72
194501,-0.06,0.06,1.13,12.08,-9.28,-2.75
194517,-0.07,0.08,1.11,17.82,-6.96,-2.75
194533,-0.05,0.12,1.12,21.67,-1.59,-2.14
194549,-0.04,0.14,1.12,20.87,1.28,-1.28
194565,-0.04,0.16,1.17,13.85,5.62,0.43
194581,-0.06,0.13,1.23,-3.85,12.08,2.32
194597,-0.07,0.11,1.24,-11.35,14.59,2.50
194613,-0.10,0.10,1.28,-11.05,13.98,-0.92
194629,-0.10,0.13,1.31,-4.03,6.10,-5.25
194645,-0.09,0.14,1.31,-0.98,1.59,-4.64
194661,-0.11,0.14,1.32,2.81,-4.70,2.44
194677,-0.15,0.10,1.32,2.14,-8.73,9.46
194693,-0.15,0.08,1.31,2.75,-11.35,10.74
194709,-0.17,0.07,1.27,8.42,-18.01,10.13
194725,-0.15,0.10,1.21,11.66,-23.93,7.02
194741,-0.14,0.12,1.17,10.74,-26.00,5.37
194757,-0.10,0.12,1.11,3.05,-26.49,3.60
194773,-0.09,0.09,1.06,-1.34,-20.87,6.77
194789,-0.08,0.08,1.06,1.16,-18.01,8.48
194805,-0.08,0.07,1.06,3.66,-14.47,7.75
194821,-0.06,0.09,1.06,1.77,-14.22,5.37
194837,-0.05,0.10,1.04,-2.26,-14.22,3.23
194853,-0.02,0.12,1.00,-9.95,-13.61,-0.73
194869,-0.01,0.09,1.00,-5.86,-10.38,0.00
194885,0.00,0.08,1.03,0.24,-8.91,4.09
194901,-0.03,0.07,1.09,11.66,-8.91,12.76
194917,-0.07,0.07,1.11,12.21,-13.79,14.04
194933,-0.07,0.08,1.10,9.46,-16.72,11.78
194949,-0.05,0.08,1.04,3.30,-20.69,7.51
194965,-0.03,0.09,0.97,5.19,-19.41,7.81
194981,-0.04,0.07,0.94,8.73,-17.09,9.95
194997,-0.07,0.08,0.93,19.90,-10.99,15.81
195013,-0.10,0.09,0.93,24.60,-7.02,18.19
195029,-0.11,0.10,0.94,24.48,-6.16,17.58
195045,-0.13,0.09,0.96,14.10,-5.37,14.47
195061,-0.15,0.06,0.99,0.24,-4.21,12.70
195077,-0.14,0.05,1.00,-4.82,-5.62,10.93
195093,-0.13,0.03,0.97,-9.52,-14.16,7.81
195109,-0.10,0.04,0.91,-2.93,-28.26,8.24
195125,-0.09,0.04,0.88,0.61,-35.71,7.93
195141,-0.05,0.05,0.78,4.27,-47.00,6.41
195157,-0.02,0.05,0.66,3.23,-50.60,4.39
195173,-0.00,0.06,0.64,1.40,-49.80,2.38
195189,0.03,0.07,0.56,-4.82,-43.46,-3.05
195205,0.04,0.08,0.54,-10.74,-32.17,-7.69
195221,0.07,0.09,0.50,-12.63,-26.06,-9.03
195237,0.09,0.10,0.50,-8.42,-13.73,-7.08
195253,0.09,0.10,0.53,-4.27,-3.11,-0.31
195269,0.08,0.11,0.59,-5.92,0.06,2.99
195285,0.08,0.06,0.63,-10.74,1.59,7.93
195301,0.09,0.04,0.64,-12.63,1.65,9.28
195317,0.10,-0.01,0.65,-12.70,2.56,8.91
195333,0.10,-0.04,0.70,-6.16,7.81,9.89
195349,0.08,-0.05,0.72,-3.36,10.19,10.80
195365,0.06,-0.03,0.76,-2.38,11.17,9.16
195381,0.00,-0.01,0.76,-4.76,8.42,3.60
195397,-0.02,0.01,0.77,-6.16,9.03,0.12
195413,-0.07,0.05,0.79,-9.95,14.95,-5.49
195429,-0.04,0.07,0.80,-8.24,21.24,-4.46
195445,-0.02,0.07,0.81,-2.93,22.09,-0.31
195461,0.01,0.06,0.86,8.85,18.19,15.26
195477,-0.01,0.01,0.89,9.89,12.88,27.53
195493,-0.02,-0.01,0.91,8.24,11.78,28.93
195509,-0.05,-0.01,0.92,2.08,14.04,18.80
195525,-0.03,0.03,0.93,-0.24,17.40,3.05
195541,-0.01,0.05,0.93,-1.22,18.62,-2.75
195557,0.04,0.06,0.92,-3.78,19.29,-3.85
195573,0.04,0.03,0.93,-5.31,22.77,4.27
195589,0.01,0.01,0.96,-5.49,26.00,6.90
195605,-0.04,0.02,1.03,-8.48,32.90,3.60
195621,-0.06,0.02,1.09,-16.30,38.51,-5.31
195637,-0.06,0.02,1.10,-20.14,40.28,-9.16
195653,-0.07,0.01,1.13,-22.28,40.89,-13.00
195669,-0.08,0.01,1.14,-14.95,38.09,-12.63
195685,-0.09,0.03,1.15,-9.70,35.89,-12.08
195701,-0.12,0.05,1.18,-6.04,32.47,-10.93
195717,-0.15,0.02,1.09,-18.74,32.65,-10.31
195733,-0.10,0.03,1.23,1.53,33.45,-3.30
195749,-0.17,0.01,1.23,14.28,20.20,4.33
195765,-0.15,-0.01,1.26,10.62,17.27,0.24
195781,-0.13,-0.01,1.28,10.31,15.50,-1.10
195797,-0.14,0.01,1.27,15.14,7.57,-3.23
195813,-0.12,0.04,1.23,19.35,1.71,-2.99
195829,-0.12,0.04,1.22,23.25,-0.79,-1.40
195845,-0.11,0.07,1.22,29.91,-2.38,1.28
195861,-0.11,0.09,1.23,26.92,0.43,-0.67
195877,-0.12,0.10,1.24,23.38,1.40,-2.32
195893,-0.13,0.09,1.26,13.85,1.40,-4.09
195909,-0.14,0.09,1.26,11.17,-3.11,-4.52
195925,-0.14,0.09,1.25,12.51,-6.16,-4.64
195941,-0.14,0.12,1.23,13.00,-11.41,-5.37
195957,-0.13,0.14,1.20,12.63,-14.10,-4.76
195973,-0.12,0.14,1.21,13.31,-13.98,-2.81
195989,-0.11,0.15,1.24,11.35,-11.60,1.53
196005,-0.12,0.14,1.26,-0.37,-7.93,3.54
196021,-0.11,0.12,1.27,-5.19,-6.41,3.23
196037,-0.11,0.12,1.31,-8.97,-4.58,2.62
196053,-0.13,0.10,1.35,-12.39,-5.80,2.69
196069,-0.14,0.10,1.36,-13.18,-7.45,2.81
196085,-0.15,0.09,1.35,-12.70,-14.59,0.79
196101,-0.11,0.07,1.31,-8.67,-25.45,-0.24
196117,-0.11,0.07,1.29,-5.00,-29.36,0.31
196133,-0.10,0.06,1.23,2.26,-35.03,3.48
196149,-0.11,0.06,1.16,7.02,-37.23,4.39
196165,-0.09,0.08,1.14,10.86,-37.17,4.09
196181,-0.11,0.11,1.08,11.54,-33.94,2.20
196197,-0.11,0.15,1.06,6.65,-27.28,1.95
196213,-0.09,0.14,1.06,2.01,-24.11,2.20
196229,-0.07,0.12,1.05,0.24,-21.79,7.39
196245,-0.06,0.09,1.05,6.10,-24.96,12.88
196261,-0.07,0.07,1.06,9.83,-27.89,14.04
196277,-0.09,0.06,1.04,14.83,-34.06,15.38
196293,-0.09,0.07,1.03,15.08,-38.27,13.43
196309,-0.06,0.09,1.00,13.79,-39.18,12.15
196325,-0.05,0.09,0.96,11.47,-39.43,12.21
196341,-0.05,0.09,0.94,8.06,-40.22,12.21
196357,-0.03,0.08,0.89,7.81,-41.20,12.45
196373,-0.01,0.06,0.85,10.31,-42.11,13.37
196389,-0.00,0.05,0.85,12.88,-41.56,14.59
196405,-0.02,0.03,0.85,13.85,-40.22,14.47
196421,-0.01,0.04,0.83,10.56,-41.20,9.89
196437,-0.00,0.05,0.81,8.24,-42.54,7.02
196453,0.06,0.07,0.74,3.54,-45.35,2.93
196469,0.10,0.06,0.66,3.48,-45.84,2.81
196485,0.12,0.05,0.62,4.27,-44.62,4.76
196501,0.11,0.04,0.60,6.59,-39.43,7.63
196517,0.11,0.04,0.58,1.46,-31.31,4.58
196533,0.11,0.04,0.57,-2.20,-27.04,1.89
196549,0.16,0.05,0.55,-8.24,-18.80,-3.97
196565,0.19,0.06,0.52,-12.45,-12.70,-9.03
196581,0.20,0.06,0.50,-13.79,-9.58,-9.58
196597,0.16,0.05,0.50,-8.12,0.37,-5.86
196613,0.12,0.07,0.56,-1.65,11.66,-2.26
196629,0.12,0.08,0.60,-1.34,15.08,-2.08
196645,0.13,0.09,0.65,-4.82,16.11,-2.20
196661,0.15,0.06,0.70,-8.42,13.67,0.98
196677,0.13,0.04,0.71,-10.68,11.84,2.81
196693,0.11,0.01,0.69,-8.06,9.22,2.69
196709,0.11,0.01,0.72,5.19,12.63,1.46
196725,0.11,0.03,0.74,10.50,15.14,1.95
196741,0.10,0.06,0.78,11.78,18.19,1.34
196757,0.06,0.09,0.81,3.54,18.07,-2.38
196773,0.05,0.11,0.82,-2.93,18.49,-3.97
196789,0.07,0.10,0.83,-13.00,20.45,-4.27
196805,0.11,0.06,0.83,-9.89,23.62,1.34
196821,0.10,0.04,0.84,-3.85,25.70,5.74
196837,0.07,0.01,0.90,5.31,29.11,11.78
196853,0.02,-0.00,0.96,6.96,31.74,12.21
196869,-0.00,-0.01,0.98,3.11,33.33,9.77
196885,-0.01,-0.02,1.03,-6.77,36.50,0.79
196901,-0.01,-0.01,1.05,-12.88,37.72,-12.70
196917,-0.00,0.02,1.06,-12.27,37.35,-18.31
196933,-0.01,0.07,1.05,-12.88,35.34,-24.11
196949,-0.02,0.07,1.03,-8.97,32.53,-19.10
196965,-0.04,0.07,1.04,-5.07,31.37,-14.47
196981,-0.06,0.07,1.11,-0.37,30.27,-8.85
196997,-0.04,0.07,1.13,-4.21,27.71,-11.66
197013,-0.03,0.07,1.11,-5.80,25.94,-14.22
197029,-0.03,0.09,1.08,0.31,22.22,-15.50
197045,-0.05,0.08,1.06,9.16,19.84,-10.86
197061,-0.06,0.08,1.08,12.21,19.96,-7.02
197077,-0.07,0.05,1.13,10.13,20.45,-2.08
197093,-0.05,0.04,1.12,0.49,21.48,-4.94
197109,-0.03,0.06,1.20,15.81,18.80,-3.85
197125,-0.07,0.05,1.17,21.67,9.95,-6.77
197141,-0.08,0.10,1.17,24.96,8.85,-9.70
197157,-0.08,0.13,1.18,26.00,6.71,-8.91
197173,-0.09,0.20,1.21,16.11,4.52,-9.34
197189,-0.07,0.18,1.20,-2.69,7.57,-8.91
197205,-0.05,0.17,1.20,-2.81,9.58,-6.41
197221,-0.05,0.14,1.21,3.17,11.84,0.12
197237,-0.05,0.15,1.23,9.58,8.67,2.75
197253,-0.05,0.16,1.22,9.46,5.80,2.32
197269,-0.03,0.16,1.18,5.55,2.26,2.20
197285,-0.03,0.15,1.17,5.68,5.00,4.82
197301,-0.05,0.15,1.21,5.80,7.87,6.16
197317,-0.08,0.13,1.27,-2.08,12.45,5.68
197333,-0.10,0.13,1.29,-6.90,11.72,-0.61
197349,-0.09,0.15,1.33,-6.90,10.80,-3.17
197365,-0.07,0.18,1.37,-7.63,8.73,-2.75
197381,-0.07,0.17,1.39,-8.67,5.86,3.11
197397,-0.10,0.14,1.43,-7.20,3.48,5.00
197413,-0.12,0.15,1.45,2.01,-3.17,4.64
197429,-0.13,0.18,1.45,4.52,-7.32,1.65
197445,-0.14,0.22,1.42,4.58,-15.38,1.46
197461,-0.11,0.22,1.35,-1.83,-20.57,5.37
197477,-0.09,0.21,1.32,-5.31,-20.81,8.42
197493,-0.10,0.15,1.25,-11.47,-16.42,17.15
197509,-0.13,0.09,1.22,-15.75,-10.80,21.73
197525,-0.16,0.07,1.21,-15.14,-10.50,19.90
197541,-0.13,0.07,1.15,-13.92,-16.17,12.15
197557,-0.08,0.08,1.06,-9.22,-21.12,6.35
197573,-0.09,0.05,1.04,-6.59,-21.48,6.90
197589,-0.11,0.02,1.06,5.31,-18.19,15.81
197605,-0.18,-0.00,1.11,12.88,-17.88,24.72
197621,-0.20,-0.01,1.11,15.01,-21.91,24.29
197637,-0.16,0.02,1.06,16.91,-34.36,15.32
197653,-0.11,0.09,0.99,13.85,-42.24,7.69
197669,-0.09,0.11,0.94,8.73,-42.72,6.16
197685,-0.05,0.11,0.86,-2.81,-40.16,6.41
197701,-0.04,0.09,0.80,-2.56,-38.21,10.01
197717,-0.03,0.08,0.80,2.20,-37.48,12.82
197733,-0.02,0.05,0.80,12.70,-34.67,17.46
197749,-0.04,0.03,0.80,16.17,-29.11,21.85
197765,-0.06,0.02,0.79,13.98,-26.79,22.09
197781,-0.08,0.01,0.76,5.31,-24.66,18.92
197797,-0.08,0.01,0.70,-2.20,-24.41,13.61
197813,-0.05,0.01,0.67,-4.39,-24.84,12.27
197829,-0.01,0.00,0.59,-2.93,-26.37,10.01
197845,0.02,-0.00,0.53,1.89,-26.18,9.83
197861,0.03,0.00,0.52,6.23,-25.21,9.77
197877,0.06,0.02,0.52,11.41,-23.25,7.32
197893,0.08,0.06,0.51,6.47,-20.63,1.77
197909,0.09,0.07,0.50,1.10,-18.31,-0.61
197925,0.11,0.07,0.46,-8.24,-10.99,-1.77
197941,0.08,0.06,0.49,-13.73,-0.06,-0.43
197957,0.08,0.04,0.52,-18.86,6.29,-0.37
197973,0.10,-0.00,0.57,-27.16,17.15,-1.65
197989,0.11,-0.05,0.65,-21.00,22.46,-2.38
198005,0.09,-0.06,0.69,-14.77,23.01,-1.46
198021,0.08,-0.05,0.74,-1.53,19.59,-0.31
198037,0.03,0.01,0.80,4.03,13.55,-4.46
198053,0.01,0.03,0.80,-0.12,11.11,-7.75
198069,0.02,0.05,0.79,-9.70,10.13,-13.18
198085,0.04,0.06,0.77,-7.20,14.47,-10.62
198101,0.06,0.06,0.78,-2.26,16.60,-7.08
198117,0.06,0.06,0.83,8.24,17.40,2.81
198133,-0.01,0.04,0.89,5.86,18.55,9.77
198149,-0.03,0.02,0.91,0.55,19.41,11.05
198165,-0.05,0.00,0.93,-6.53,23.19,3.05
198181,-0.00,0.01,0.93,-3.66,25.82,-6.35
198197,0.01,0.02,0.94,1.71,26.55,-7.81
198213,-0.01,0.05,0.98,7.87,28.20,-2.26
198229,-0.07,0.05,1.01,3.42,29.30,3.60
198245,-0.12,0.03,1.05,-1.46,28.93,3.54
198261,-0.11,0.02,1.08,-11.84,28.93,-1.46
198277,-0.08,0.03,1.09,-16.97,28.63,-10.68
198293,-0.06,0.03,1.08,-17.46,28.26,-13.49
198309,-0.05,0.03,1.06,-10.07,27.10,-10.68
198325,-0.07,0.05,1.11,0.85,26.86,-1.95
198341,-0.11,0.03,1.13,2.01,26.92,1.40
198357,-0.15,0.01,1.16,-0.61,26.55,1.28
198373,-0.15,0.02,1.18,-0.61,23.86,-2.99
198389,-0.15,0.03,1.10,-5.86,22.71,-7.14
198405,-0.10,0.04,1.25,9.46,22.58,-2.75
198421,-0.16,0.05,1.21,12.02,12.82,-1.53
198437,-0.14,0.03,1.17,15.20,13.12,-3.48
198453,-0.14,0.08,1.24,24.35,12.08,-2.99
198469,-0.14,0.11,1.25,23.86,8.00,-3.42
198485,-0.12,0.13,1.25,10.44,6.41,-3.78
198501,-0.10,0.11,1.21,2.01,4.70,-1.46
198517,-0.09,0.09,1.20,4.27,4.88,1.95
198533,-0.11,0.07,1.21,10.80,6.16,6.84
198549,-0.13,0.08,1.23,14.71,5.55,6.53
198565,-0.12,0.09,1.23,14.10,4.39,4.52
198581,-0.13,0.12,1.25,8.42,3.11,0.73
198597,-0.14,0.11,1.29,-4.52,6.04,-0.98
198613,-0.16,0.09,1.30,-9.77,7.93,-0.79
198629,-0.16,0.05,1.34,-9.03,6.90,1.83
198645,-0.15,0.06,1.38,-1.22,-0.43,1.40
198661,-0.14,0.08,1.39,0.06,-4.52,0.67
198677,-0.14,0.08,1.37,0.43,-11.41,1.04
198693,-0.16,0.06,1.39,3.30,-15.08,4.09
198709,-0.18,0.04,1.39,4.64,-16.54,5.00
198725,-0.19,0.04,1.38,5.80,-21.42,4.09
198741,-0.18,0.04,1.33,6.90,-28.44,0.98
198757,-0.16,0.05,1.30,7.45,-32.17,-0.55
198773,-0.14,0.07,1.22,7.14,-37.54,-2.01
198789,-0.12,0.08,1.14,5.92,-39.49,-1.46
198805,-0.12,0.09,1.11,4.03,-38.39,-1.22
198821,-0.11,0.10,1.07,-3.60,-33.75,-0.92
198837,-0.09,0.10,1.09,-14.65,-29.85,-1.77
198853,-0.08,0.10,1.09,-21.97,-29.97,-2.99
198869,-0.06,0.09,1.03,-29.97,-34.42,-6.96
198885,-0.04,0.08,0.98,-25.57,-37.96,-6.41
198901,-0.03,0.06,0.97,-19.41,-37.29,-2.81
198917,-0.02,0.00,0.99,-1.53,-33.33,9.46
198933,-0.05,-0.02,1.03,16.60,-33.45,17.70
198949,-0.06,-0.02,1.04,22.52,-36.01,17.15
198965,-0.06,0.00,1.01,23.13,-42.79,12.39
198981,-0.05,0.02,0.94,15.99,-46.08,8.61
198997,-0.04,0.02,0.91,13.24,-45.78,7.45
199013,-0.02,0.03,0.85,10.01,-42.36,7.02
199029,-0.00,0.04,0.79,9.16,-39.37,7.63
199045,0.00,0.04,0.76,10.56,-38.27,7.87
199061,0.01,0.06,0.70,9.89,-34.55,9.95
199077,0.03,0.07,0.66,1.04,-29.11,11.96
199093,0.03,0.06,0.62,-6.23,-24.84,12.33
199109,0.05,-0.00,0.56,-11.17,-14.10,13.31
199125,0.05,-0.05,0.61,3.36,1.16,17.03
199141,0.03,-0.05,0.65,9.77,7.20,18.80
199157,0.01,-0.03,0.70,9.03,9.83,14.22
199173,0.03,-0.01,0.68,-2.20,0.61,3.78
199189,0.04,-0.01,0.65,-7.75,-5.00,-1.34
199205,0.08,-0.00,0.58,-10.44,-10.86,-7.26
199221,0.09,0.00,0.55,-3.97,-8.06,-6.16
199237,0.08,0.00,0.57,0.06,-4.46,-2.93
199253,0.09,0.01,0.62,1.46,2.93,1.77
199269,0.12,-0.01,0.65,-5.80,7.93,0.98
199285,0.13,-0.03,0.65,-9.83,10.25,-0.55
199301,0.13,-0.05,0.71,-12.45,17.40,-4.27
199317,0.09,-0.04,0.78,-9.89,24.60,-8.97
199333,0.07,-0.01,0.82,-7.57,25.76,-12.70
199349,0.06,0.04,0.86,-4.94,22.89,-17.88
199365,0.07,0.07,0.86,-4.82,17.70,-14.83
199381,0.08,0.06,0.86,-4.52,15.87,-11.11
199397,0.09,0.03,0.87,-4.27,15.99,-3.11
199413,0.08,0.01,0.88,-4.33,19.29,1.95
199429,0.03,-0.02,0.89,-3.97,20.51,1.53
199445,0.00,-0.02,0.93,1.28,22.95,-2.38
199461,0.00,-0.01,0.95,4.64,23.50,-6.35
199477,0.02,0.00,0.96,6.71,22.22,-7.81
199493,0.02,0.04,0.99,8.00,20.02,-9.03
199509,0.01,0.05,1.01,1.22,20.26,-7.75
199525,-0.04,0.05,1.03,-3.97,21.42,-7.81
199541,-0.07,0.03,1.04,-5.98,23.62,-8.06
199557,-0.06,0.03,1.04,-3.42,23.13,-8.12
199573,-0.03,0.07,1.03,3.66,17.82,-8.91
199589,-0.02,0.09,1.04,4.15,13.49,-7.20
199605,-0.03,0.08,1.02,1.46,13.18,-4.94
199621,-0.07,0.06,1.05,1.77,16.72,0.49
199637,-0.11,0.03,1.09,3.30,21.48,3.30
199653,-0.11,0.03,1.10,5.55,22.16,3.60
199669,-0.09,0.04,1.12,6.35,21.42,-0.43
199685,-0.07,0.07,1.10,-0.98,18.49,-2.62
199701,-0.10,0.02,1.09,-9.16,20.81,-3.30
199717,-0.12,0.05,1.15,9.22,13.43,2.87
199733,-0.12,0.02,1.14,12.33,11.66,-0.31
199749,-0.13,0.04,1.15,16.17,10.80,-0.79
199765,-0.11,0.07,1.18,21.79,8.85,1.59
199781,-0.09,0.08,1.21,16.17,6.90,4.39
199797,-0.09,0.07,1.20,10.01,6.35,5.55
199813,-0.08,0.03,1.17,4.64,5.98,7.14
199829,-0.09,0.02,1.15,7.81,6.16,5.62
199845,-0.10,0.03,1.17,11.66,6.84,3.48
199861,-0.09,0.06,1.20,7.93,9.34,-0.67
199877,-0.08,0.07,1.26,0.18,11.23,-2.99
199893,-0.08,0.06,1.27,-4.82,11.54,-2.44
199909,-0.08,0.04,1.29,-6.23,8.18,-1.40
199925,-0.09,0.03,1.29,-1.89,1.59,-1.59
199941,-0.09,0.05,1.30,1.77,-0.92,-1.83
199957,-0.08,0.08,1.32,4.46,-2.62,-2.56
199973,-0.07,0.08,1.36,-0.06,-2.69,-2.32
199989,-0.06,0.07,1.37,-3.42,-3.54,-1.16
200005,-0.08,0.05,1.39,-5.92,-8.79,0.31